STUDYID,DOMAIN,USUBJID,CMSEQ,CMSPID,CMTRT,CMDECOD,CMINDC,CMCLAS,CMDOSE,CMDOSU,CMDOSFRQ,CMROUTE,VISITNUM,VISIT,VISITDY,CMDTC,CMSTDTC,CMENDTC,CMSTDY,CMENDY
CDISCPILOT01,CM,01-704-1266,9,5,SUDAFED,UNCODED,,UNCODED,60.000,mg,PRN,ORAL,2,SCREENING 2,-1,10/10/2013 07:00,2013-10-06,2013-10-08,-7,-5
CDISCPILOT01,CM,01-708-1032,3,3,LORAZEPAM,UNCODED,,UNCODED,0.500,mg,PRN,ORAL,1,SCREENING 1,-7,2/1/2013 10:00,2013-02-02,2013-02-07,-7,-2
CDISCPILOT01,CM,01-708-1032,6,3,LORAZEPAM,UNCODED,,UNCODED,0.500,mg,PRN,ORAL,2,SCREENING 2,-1,2/6/2013 10:00,2013-02-02,2013-02-07,-7,-2
CDISCPILOT01,CM,01-708-1032,9,3,LORAZEPAM,UNCODED,,UNCODED,0.500,mg,PRN,ORAL,3,BASELINE,1,2/8/2013 10:00,2013-02-02,2013-02-07,-7,-2
CDISCPILOT01,CM,01-708-1084,6,4,LORAZEPAM,UNCODED,PRIMARY STUDY CONDITION,UNCODED,2.000,mg,PRN,ORAL,2,SCREENING 2,-1,5/5/2013 07:00,2013-05-02,2013-05-07,-7,-2
CDISCPILOT01,CM,01-708-1084,9,4,LORAZEPAM,UNCODED,PRIMARY STUDY CONDITION,UNCODED,2.000,mg,PRN,ORAL,3,BASELINE,1,5/8/2013 07:00,2013-05-02,2013-05-07,-7,-2
CDISCPILOT01,CM,01-709-1001,13,6,ASPIRIN (E.C.),UNCODED,PROPHYLAXIS OR NON-THERAPEUTIC USE,UNCODED,1.000,mg,QD,ORAL,2,SCREENING 2,-1,10/5/2013 07:00,2013-10-01,,-7,-6
CDISCPILOT01,CM,01-709-1001,20,6,ASPIRIN (E.C.),UNCODED,PROPHYLAXIS OR NON-THERAPEUTIC USE,UNCODED,1.000,mg,QD,ORAL,3,BASELINE,1,10/7/2013 07:00,2013-10-01,,-7,-6
CDISCPILOT01,CM,01-709-1001,27,6,ASPIRIN (E.C.),UNCODED,PROPHYLAXIS OR NON-THERAPEUTIC USE,UNCODED,1.000,mg,QD,ORAL,4,WEEK 2,14,10/21/2013 07:00,2013-10-01,,-7,-6
CDISCPILOT01,CM,01-709-1001,33,6,ASPIRIN (E.C.),UNCODED,PROPHYLAXIS OR NON-THERAPEUTIC USE,UNCODED,1.000,mg,QD,ORAL,5,WEEK 4,28,11/2/2013 10:00,2013-10-01,,-7,-6
CDISCPILOT01,CM,01-709-1001,39,6,ASPIRIN (E.C.),UNCODED,PROPHYLAXIS OR NON-THERAPEUTIC USE,UNCODED,1.000,mg,QD,ORAL,6,AMBUL ECG REMOVAL,30,11/3/2013 10:00,2013-10-01,,-7,-6
CDISCPILOT01,CM,01-709-1001,45,6,ASPIRIN (E.C.),UNCODED,PROPHYLAXIS OR NON-THERAPEUTIC USE,UNCODED,1.000,mg,QD,ORAL,7,WEEK 6,42,11/18/2013 10:00,2013-10-01,,-7,-6
CDISCPILOT01,CM,01-709-1001,51,6,ASPIRIN (E.C.),UNCODED,PROPHYLAXIS OR NON-THERAPEUTIC USE,UNCODED,1.000,mg,QD,ORAL,8,WEEK 8,56,12/2/2013 10:00,2013-10-01,,-7,-6
CDISCPILOT01,CM,01-709-1001,57,6,ASPIRIN (E.C.),UNCODED,PROPHYLAXIS OR NON-THERAPEUTIC USE,UNCODED,1.000,mg,QD,ORAL,9,WEEK 12,84,12/30/2013 10:00,2013-10-01,,-7,-6
CDISCPILOT01,CM,01-709-1001,63,6,ASPIRIN (E.C.),UNCODED,PROPHYLAXIS OR NON-THERAPEUTIC USE,UNCODED,1.000,mg,QD,ORAL,10,WEEK 16,112,1/27/2014 10:00,2013-10-01,,-7,-6
CDISCPILOT01,CM,01-709-1001,69,6,ASPIRIN (E.C.),UNCODED,PROPHYLAXIS OR NON-THERAPEUTIC USE,UNCODED,1.000,mg,QD,ORAL,11,WEEK 20,140,2/24/2014 10:00,2013-10-01,,-7,-6
CDISCPILOT01,CM,01-709-1001,75,6,ASPIRIN (E.C.),UNCODED,PROPHYLAXIS OR NON-THERAPEUTIC USE,UNCODED,1.000,mg,QD,ORAL,12,WEEK 24,168,3/17/2014 10:00,2013-10-01,,-7,-6
CDISCPILOT01,CM,01-709-1001,82,6,ASPIRIN (E.C.),UNCODED,PROPHYLAXIS OR NON-THERAPEUTIC USE,UNCODED,1.000,mg,QD,ORAL,13,WEEK 26,182,4/7/2014 07:00,2013-10-01,,-7,-6
CDISCPILOT01,CM,01-711-1433,4,3,GARAMYCIN OPHTHALMIC,UNCODED,,UNCODED,3.500,g,TID,TOPICAL,1,SCREENING 1,-7,1/22/2013 10:00,2013-01-20,2013-01-30,-7,4
CDISCPILOT01,CM,01-711-1433,7,3,GARAMYCIN OPHTHALMIC,UNCODED,,UNCODED,3.500,g,TID,TOPICAL,2,SCREENING 2,-1,1/24/2013 10:00,2013-01-20,2013-01-30,-7,4
CDISCPILOT01,CM,01-711-1433,10,3,GARAMYCIN OPHTHALMIC,UNCODED,,UNCODED,3.500,g,TID,TOPICAL,3,BASELINE,1,1/26/2013 10:00,2013-01-20,2013-01-30,-7,4
CDISCPILOT01,CM,01-711-1433,13,3,GARAMYCIN OPHTHALMIC,UNCODED,,UNCODED,3.500,g,TID,TOPICAL,4,WEEK 2,14,2/5/2013 10:00,2013-01-20,2013-01-30,-7,4
CDISCPILOT01,CM,01-704-1009,9,5,CLARITIN,UNCODED,,UNCODED,10.000,mg,QD,ORAL,2,SCREENING 2,-1,8/23/2013 07:00,2013-08-21,,-6,-3
CDISCPILOT01,CM,01-704-1009,13,5,CLARITIN,UNCODED,,UNCODED,10.000,mg,QD,ORAL,3,BASELINE,1,8/26/2013 07:00,2013-08-21,,-6,-3
CDISCPILOT01,CM,01-704-1009,17,5,CLARITIN,UNCODED,,UNCODED,10.000,mg,QD,ORAL,4,WEEK 2,14,9/13/2013 07:00,2013-08-21,,-6,-3
CDISCPILOT01,CM,01-704-1009,21,5,CLARITIN,UNCODED,,UNCODED,10.000,mg,QD,ORAL,5,WEEK 4,28,10/1/2013 07:00,2013-08-21,,-6,-3
CDISCPILOT01,CM,01-708-1236,13,7,ZESTORETIC,UNCODED,,UNCODED,1.000,TABLET,QD,ORAL,2,SCREENING 2,-1,9/18/2013 07:00,2013-09-15,,-6,-3
CDISCPILOT01,CM,01-708-1236,18,7,ZESTORETIC,UNCODED,,UNCODED,1.000,TABLET,QD,ORAL,3,BASELINE,1,9/20/2013 07:00,2013-09-15,,-6,-3
CDISCPILOT01,CM,01-708-1236,23,7,ZESTORETIC,UNCODED,,UNCODED,1.000,TABLET,QD,ORAL,4,WEEK 2,14,9/25/2013 07:00,2013-09-15,,-6,-3
CDISCPILOT01,CM,01-709-1326,3,2,INFLUENZA VIRUS VACCINE,UNCODED,PROPHYLAXIS OR NON-THERAPEUTIC USE,UNCODED,1.000,IU,QD,INTRAMUSCULAR,2,SCREENING 2,-1,4/2/2013 07:00,2013-03-30,2013-03-30,-6,-6
CDISCPILOT01,CM,01-701-1111,13,7,"HYDROCORTISONE, TOPICAL",UNCODED,,UNCODED,1.000,VIAL,PRN,TOPICAL,2,SCREENING 2,-1,9/4/2012 07:00,2012-09-02,2012-09-04,-5,-3
CDISCPILOT01,CM,01-716-1094,7,5,NITRO PATCH,UNCODED,,UNCODED,9.600,mg,QD,TRANSDERMAL,1,SCREENING 1,-7,12/15/2012 10:00,2012-12-15,,-4,-1
CDISCPILOT01,CM,01-716-1094,14,5,NITRO PATCH,UNCODED,,UNCODED,9.600,mg,QD,TRANSDERMAL,2,SCREENING 2,-1,12/16/2012 10:00,2012-12-15,,-4,-1
CDISCPILOT01,CM,01-716-1094,21,5,NITRO PATCH,UNCODED,,UNCODED,9.600,mg,QD,TRANSDERMAL,3,BASELINE,1,12/18/2012 10:00,2012-12-15,,-4,-1
CDISCPILOT01,CM,01-716-1094,28,5,NITRO PATCH,UNCODED,,UNCODED,9.600,mg,QD,TRANSDERMAL,4,WEEK 2,14,1/5/2013 10:00,2012-12-15,,-4,-1
CDISCPILOT01,CM,01-716-1094,35,5,NITRO PATCH,UNCODED,,UNCODED,9.600,mg,QD,TRANSDERMAL,5,WEEK 4,28,1/18/2013 10:00,2012-12-15,,-4,-1
CDISCPILOT01,CM,01-716-1094,42,5,NITRO PATCH,UNCODED,,UNCODED,9.600,mg,QD,TRANSDERMAL,6,AMBUL ECG REMOVAL,30,1/20/2013 10:00,2012-12-15,,-4,-1
CDISCPILOT01,CM,01-716-1094,49,5,NITRO PATCH,UNCODED,,UNCODED,9.600,mg,QD,TRANSDERMAL,7,WEEK 6,42,1/25/2013 10:00,2012-12-15,,-4,-1
CDISCPILOT01,CM,01-716-1094,56,5,NITRO PATCH,UNCODED,,UNCODED,9.600,mg,QD,TRANSDERMAL,101,AE FOLLOW-UP,,1/25/2013 10:00,2012-12-15,,-4,-1
CDISCPILOT01,CM,01-716-1094,63,5,NITRO PATCH,UNCODED,,UNCODED,9.600,mg,QD,TRANSDERMAL,201,RETRIEVAL,168,6/21/2013 07:00,2012-12-15,,-4,-1
CDISCPILOT01,CM,01-701-1203,5,3,ALPHAGAN,UNCODED,,UNCODED,1.000,gtt,BID,OPHTHALMIC,2,SCREENING 2,-1,1/31/2013 10:00,2013-01-31,,-2,-1
CDISCPILOT01,CM,01-701-1203,9,3,ALPHAGAN,UNCODED,,UNCODED,1.000,gtt,BID,OPHTHALMIC,3,BASELINE,1,2/1/2013 10:00,2013-01-31,,-2,-1
CDISCPILOT01,CM,01-701-1203,13,3,ALPHAGAN,UNCODED,,UNCODED,1.000,gtt,BID,OPHTHALMIC,4,WEEK 2,14,2/22/2013 10:00,2013-01-31,,-2,-1
CDISCPILOT01,CM,01-701-1203,17,3,ALPHAGAN,UNCODED,,UNCODED,1.000,gtt,BID,OPHTHALMIC,5,WEEK 4,28,3/1/2013 10:00,2013-01-31,,-2,-1
CDISCPILOT01,CM,01-701-1203,21,3,ALPHAGAN,UNCODED,,UNCODED,1.000,gtt,BID,OPHTHALMIC,6,AMBUL ECG REMOVAL,30,3/3/2013 10:00,2013-01-31,,-2,-1
CDISCPILOT01,CM,01-701-1203,25,3,ALPHAGAN,UNCODED,,UNCODED,1.000,gtt,BID,OPHTHALMIC,7,WEEK 6,42,3/16/2013 10:00,2013-01-31,,-2,-1
CDISCPILOT01,CM,01-701-1203,29,3,ALPHAGAN,UNCODED,,UNCODED,1.000,gtt,BID,OPHTHALMIC,8,WEEK 8,56,3/30/2013 10:00,2013-01-31,,-2,-1
CDISCPILOT01,CM,01-701-1203,33,3,ALPHAGAN,UNCODED,,UNCODED,1.000,gtt,BID,OPHTHALMIC,9,WEEK 12,84,5/8/2013 07:00,2013-01-31,,-2,-1
CDISCPILOT01,CM,01-701-1203,37,3,ALPHAGAN,UNCODED,,UNCODED,1.000,gtt,BID,OPHTHALMIC,10,WEEK 16,112,5/24/2013 07:00,2013-01-31,,-2,-1
CDISCPILOT01,CM,01-701-1203,41,3,ALPHAGAN,UNCODED,,UNCODED,1.000,gtt,BID,OPHTHALMIC,11,WEEK 20,140,6/21/2013 07:00,2013-01-31,,-2,-1
CDISCPILOT01,CM,01-701-1203,45,3,ALPHAGAN,UNCODED,,UNCODED,1.000,gtt,BID,OPHTHALMIC,12,WEEK 24,168,7/21/2013 07:00,2013-01-31,,-2,-1
CDISCPILOT01,CM,01-701-1203,51,3,ALPHAGAN,UNCODED,,UNCODED,1.000,gtt,BID,OPHTHALMIC,13,WEEK 26,182,8/2/2013 07:00,2013-01-31,,-2,-1
CDISCPILOT01,CM,01-701-1203,6,4,PILOSTAT,UNCODED,,UNCODED,1.000,gtt,BID,OPHTHALMIC,2,SCREENING 2,-1,1/31/2013 10:00,2013-01-31,,-2,-1
CDISCPILOT01,CM,01-701-1203,10,4,PILOSTAT,UNCODED,,UNCODED,1.000,gtt,BID,OPHTHALMIC,3,BASELINE,1,2/1/2013 10:00,2013-01-31,,-2,-1
CDISCPILOT01,CM,01-701-1203,14,4,PILOSTAT,UNCODED,,UNCODED,1.000,gtt,BID,OPHTHALMIC,4,WEEK 2,14,2/22/2013 10:00,2013-01-31,,-2,-1
CDISCPILOT01,CM,01-701-1203,18,4,PILOSTAT,UNCODED,,UNCODED,1.000,gtt,BID,OPHTHALMIC,5,WEEK 4,28,3/1/2013 10:00,2013-01-31,,-2,-1
CDISCPILOT01,CM,01-701-1203,22,4,PILOSTAT,UNCODED,,UNCODED,1.000,gtt,BID,OPHTHALMIC,6,AMBUL ECG REMOVAL,30,3/3/2013 10:00,2013-01-31,,-2,-1
CDISCPILOT01,CM,01-701-1203,26,4,PILOSTAT,UNCODED,,UNCODED,1.000,gtt,BID,OPHTHALMIC,7,WEEK 6,42,3/16/2013 10:00,2013-01-31,,-2,-1
CDISCPILOT01,CM,01-701-1203,30,4,PILOSTAT,UNCODED,,UNCODED,1.000,gtt,BID,OPHTHALMIC,8,WEEK 8,56,3/30/2013 10:00,2013-01-31,,-2,-1
CDISCPILOT01,CM,01-701-1203,34,4,PILOSTAT,UNCODED,,UNCODED,1.000,gtt,BID,OPHTHALMIC,9,WEEK 12,84,5/8/2013 07:00,2013-01-31,,-2,-1
CDISCPILOT01,CM,01-701-1203,38,4,PILOSTAT,UNCODED,,UNCODED,1.000,gtt,BID,OPHTHALMIC,10,WEEK 16,112,5/24/2013 07:00,2013-01-31,,-2,-1
CDISCPILOT01,CM,01-701-1203,42,4,PILOSTAT,UNCODED,,UNCODED,1.000,gtt,BID,OPHTHALMIC,11,WEEK 20,140,6/21/2013 07:00,2013-01-31,,-2,-1
CDISCPILOT01,CM,01-701-1203,46,4,PILOSTAT,UNCODED,,UNCODED,1.000,gtt,BID,OPHTHALMIC,12,WEEK 24,168,7/21/2013 07:00,2013-01-31,,-2,-1
CDISCPILOT01,CM,01-701-1203,52,4,PILOSTAT,UNCODED,,UNCODED,1.000,gtt,BID,OPHTHALMIC,13,WEEK 26,182,8/2/2013 07:00,2013-01-31,,-2,-1
CDISCPILOT01,CM,01-709-1001,14,8,ATIVAN,UNCODED,PRIMARY STUDY CONDITION,UNCODED,1.000,mg,QD,ORAL,2,SCREENING 2,-1,10/5/2013 07:00,2013-10-06,2013-10-06,-2,-2
CDISCPILOT01,CM,01-709-1001,21,8,ATIVAN,UNCODED,PRIMARY STUDY CONDITION,UNCODED,1.000,mg,QD,ORAL,3,BASELINE,1,10/7/2013 07:00,2013-10-06,2013-10-06,-2,-2
CDISCPILOT01,CM,01-709-1309,11,6,"HYDROCORTISONE, TOPICAL",UNCODED,,UNCODED,1.000,IU,PRN,ORAL,2,SCREENING 2,-1,6/16/2013 07:00,2013-06-17,,-2,-1
CDISCPILOT01,CM,01-709-1309,17,6,"HYDROCORTISONE, TOPICAL",UNCODED,,UNCODED,1.000,IU,PRN,ORAL,3,BASELINE,1,6/18/2013 07:00,2013-06-17,,-2,-1
CDISCPILOT01,CM,01-709-1309,23,6,"HYDROCORTISONE, TOPICAL",UNCODED,,UNCODED,1.000,IU,PRN,ORAL,4,WEEK 2,14,6/30/2013 07:00,2013-06-17,,-2,-1
CDISCPILOT01,CM,01-709-1309,29,6,"HYDROCORTISONE, TOPICAL",UNCODED,,UNCODED,1.000,IU,PRN,ORAL,5,WEEK 4,28,7/15/2013 07:00,2013-06-17,,-2,-1
CDISCPILOT01,CM,01-709-1309,35,6,"HYDROCORTISONE, TOPICAL",UNCODED,,UNCODED,1.000,IU,PRN,ORAL,6,AMBUL ECG REMOVAL,30,7/17/2013 07:00,2013-06-17,,-2,-1
CDISCPILOT01,CM,01-709-1309,41,6,"HYDROCORTISONE, TOPICAL",UNCODED,,UNCODED,1.000,IU,PRN,ORAL,7,WEEK 6,42,7/30/2013 07:00,2013-06-17,,-2,-1
CDISCPILOT01,CM,01-709-1309,47,6,"HYDROCORTISONE, TOPICAL",UNCODED,,UNCODED,1.000,IU,PRN,ORAL,8,WEEK 8,56,8/14/2013 07:00,2013-06-17,,-2,-1
CDISCPILOT01,CM,01-709-1309,53,6,"HYDROCORTISONE, TOPICAL",UNCODED,,UNCODED,1.000,IU,PRN,ORAL,9,WEEK 12,84,9/10/2013 07:00,2013-06-17,,-2,-1
CDISCPILOT01,CM,01-709-1309,59,6,"HYDROCORTISONE, TOPICAL",UNCODED,,UNCODED,1.000,IU,PRN,ORAL,10,WEEK 16,112,10/15/2013 07:00,2013-06-17,,-2,-1
CDISCPILOT01,CM,01-709-1309,65,6,"HYDROCORTISONE, TOPICAL",UNCODED,,UNCODED,1.000,IU,PRN,ORAL,11,WEEK 20,140,11/6/2013 10:00,2013-06-17,,-2,-1
CDISCPILOT01,CM,01-709-1309,71,6,"HYDROCORTISONE, TOPICAL",UNCODED,,UNCODED,1.000,IU,PRN,ORAL,12,WEEK 24,168,12/4/2013 10:00,2013-06-17,,-2,-1
CDISCPILOT01,CM,01-709-1309,78,6,"HYDROCORTISONE, TOPICAL",UNCODED,,UNCODED,1.000,IU,PRN,ORAL,13,WEEK 26,182,12/18/2013 10:00,2013-06-17,,-2,-1
CDISCPILOT01,CM,01-709-1326,4,3,ATIVAN,UNCODED,PRIMARY STUDY CONDITION,UNCODED,1.000,mg,QD,ORAL,2,SCREENING 2,-1,4/2/2013 07:00,2013-04-03,2013-04-03,-2,-2
CDISCPILOT01,CM,01-709-1326,6,3,ATIVAN,UNCODED,PRIMARY STUDY CONDITION,UNCODED,1.000,mg,QD,ORAL,3,BASELINE,1,4/4/2013 07:00,2013-04-03,2013-04-03,-2,-2
CDISCPILOT01,CM,01-711-1012,5,3,TYLENOL,UNCODED,,UNCODED,325.000,mg,PRN,ORAL,2,SCREENING 2,-1,3/31/2013 09:00,2013-04-01,2013-04-15,-2,13
CDISCPILOT01,CM,01-711-1012,8,3,TYLENOL,UNCODED,,UNCODED,325.000,mg,PRN,ORAL,3,BASELINE,1,4/2/2013 07:00,2013-04-01,2013-04-15,-2,13
CDISCPILOT01,CM,01-711-1012,11,3,TYLENOL,UNCODED,,UNCODED,325.000,mg,PRN,ORAL,4,WEEK 2,14,4/16/2013 07:00,2013-04-01,2013-04-15,-2,13
CDISCPILOT01,CM,01-708-1253,1,1,PSEUDO-CHLOR,UNCODED,,UNCODED,1.000,TABLET,BID,ORAL,3,BASELINE,1,5/6/2013 07:00,2013-05-06,2013-05-16,-1,10
CDISCPILOT01,CM,01-708-1253,3,1,PSEUDO-CHLOR,UNCODED,,UNCODED,1.000,TABLET,BID,ORAL,4,WEEK 2,14,5/20/2013 07:00,2013-05-06,2013-05-16,-1,10
CDISCPILOT01,CM,01-708-1253,2,2,SULFACETAMIDE,UNCODED,,UNCODED,2.000,gtt,QID,OPHTHALMIC,3,BASELINE,1,5/6/2013 07:00,2013-05-06,2013-05-16,-1,10
CDISCPILOT01,CM,01-708-1253,4,2,SULFACETAMIDE,UNCODED,,UNCODED,2.000,gtt,QID,OPHTHALMIC,4,WEEK 2,14,5/20/2013 07:00,2013-05-06,2013-05-16,-1,10
CDISCPILOT01,CM,01-709-1424,10,4,CHLORAL HYDRATE,UNCODED,PRIMARY STUDY CONDITION,UNCODED,3.000,TABLET,QD,ORAL,3,BASELINE,1,3/2/2013 10:00,2013-03-02,2013-03-02,-1,-1
CDISCPILOT01,CM,01-710-1315,7,3,TYLENOL,UNCODED,,UNCODED,500.000,mg,ONCE,ORAL,3,BASELINE,1,2/26/2013 10:00,2013-02-26,2013-02-26,-1,-1
CDISCPILOT01,CM,01-714-1375,10,4,AXID,NIZATIDINE,,ALIMENTARY TRACT AND METABOLISM,150.000,mg,PRN,ORAL,3,BASELINE,1,2/25/2013 10:00,2013-02-25,,-1,1
CDISCPILOT01,CM,01-714-1375,15,4,AXID,NIZATIDINE,,ALIMENTARY TRACT AND METABOLISM,150.000,mg,PRN,ORAL,4,WEEK 2,14,3/19/2013 10:00,2013-02-25,,-1,1
CDISCPILOT01,CM,01-714-1375,20,4,AXID,NIZATIDINE,,ALIMENTARY TRACT AND METABOLISM,150.000,mg,PRN,ORAL,5,WEEK 4,28,4/5/2013 07:00,2013-02-25,,-1,1
CDISCPILOT01,CM,01-714-1375,26,4,AXID,NIZATIDINE,,ALIMENTARY TRACT AND METABOLISM,150.000,mg,PRN,ORAL,6,AMBUL ECG REMOVAL,30,4/7/2013 07:00,2013-02-25,,-1,1
CDISCPILOT01,CM,01-714-1375,32,4,AXID,NIZATIDINE,,ALIMENTARY TRACT AND METABOLISM,150.000,mg,PRN,ORAL,7,WEEK 6,42,4/14/2013 07:00,2013-02-25,,-1,1
CDISCPILOT01,CM,01-714-1375,38,4,AXID,NIZATIDINE,,ALIMENTARY TRACT AND METABOLISM,150.000,mg,PRN,ORAL,8,WEEK 8,56,4/25/2013 07:00,2013-02-25,,-1,1
CDISCPILOT01,CM,01-714-1375,44,4,AXID,NIZATIDINE,,ALIMENTARY TRACT AND METABOLISM,150.000,mg,PRN,ORAL,9,WEEK 12,84,5/24/2013 07:00,2013-02-25,,-1,1
CDISCPILOT01,CM,01-714-1375,50,4,AXID,NIZATIDINE,,ALIMENTARY TRACT AND METABOLISM,150.000,mg,PRN,ORAL,10,WEEK 16,112,6/21/2013 07:00,2013-02-25,,-1,1
CDISCPILOT01,CM,01-714-1375,56,4,AXID,NIZATIDINE,,ALIMENTARY TRACT AND METABOLISM,150.000,mg,PRN,ORAL,11,WEEK 20,140,7/19/2013 07:00,2013-02-25,,-1,1
CDISCPILOT01,CM,01-714-1375,62,4,AXID,NIZATIDINE,,ALIMENTARY TRACT AND METABOLISM,150.000,mg,PRN,ORAL,12,WEEK 24,168,8/22/2013 07:00,2013-02-25,,-1,1
CDISCPILOT01,CM,01-714-1375,68,4,AXID,NIZATIDINE,,ALIMENTARY TRACT AND METABOLISM,150.000,mg,PRN,ORAL,13,WEEK 26,182,9/6/2013 07:00,2013-02-25,,-1,1
CDISCPILOT01,CM,01-714-1375,11,5,CLARITIN,UNCODED,,UNCODED,10.000,mg,PRN,ORAL,3,BASELINE,1,2/25/2013 10:00,2013-02-25,,-1,1
CDISCPILOT01,CM,01-714-1375,16,5,CLARITIN,UNCODED,,UNCODED,10.000,mg,PRN,ORAL,4,WEEK 2,14,3/19/2013 10:00,2013-02-25,,-1,1
CDISCPILOT01,CM,01-714-1375,21,5,CLARITIN,UNCODED,,UNCODED,10.000,mg,PRN,ORAL,5,WEEK 4,28,4/5/2013 07:00,2013-02-25,,-1,1
CDISCPILOT01,CM,01-714-1375,27,5,CLARITIN,UNCODED,,UNCODED,10.000,mg,PRN,ORAL,6,AMBUL ECG REMOVAL,30,4/7/2013 07:00,2013-02-25,,-1,1
CDISCPILOT01,CM,01-714-1375,33,5,CLARITIN,UNCODED,,UNCODED,10.000,mg,PRN,ORAL,7,WEEK 6,42,4/14/2013 07:00,2013-02-25,,-1,1
CDISCPILOT01,CM,01-714-1375,39,5,CLARITIN,UNCODED,,UNCODED,10.000,mg,PRN,ORAL,8,WEEK 8,56,4/25/2013 07:00,2013-02-25,,-1,1
CDISCPILOT01,CM,01-714-1375,45,5,CLARITIN,UNCODED,,UNCODED,10.000,mg,PRN,ORAL,9,WEEK 12,84,5/24/2013 07:00,2013-02-25,,-1,1
CDISCPILOT01,CM,01-714-1375,51,5,CLARITIN,UNCODED,,UNCODED,10.000,mg,PRN,ORAL,10,WEEK 16,112,6/21/2013 07:00,2013-02-25,,-1,1
CDISCPILOT01,CM,01-714-1375,57,5,CLARITIN,UNCODED,,UNCODED,10.000,mg,PRN,ORAL,11,WEEK 20,140,7/19/2013 07:00,2013-02-25,,-1,1
CDISCPILOT01,CM,01-714-1375,63,5,CLARITIN,UNCODED,,UNCODED,10.000,mg,PRN,ORAL,12,WEEK 24,168,8/22/2013 07:00,2013-02-25,,-1,1
CDISCPILOT01,CM,01-714-1375,69,5,CLARITIN,UNCODED,,UNCODED,10.000,mg,PRN,ORAL,13,WEEK 26,182,9/6/2013 07:00,2013-02-25,,-1,1
CDISCPILOT01,CM,01-704-1017,4,2,PREMARIN,ESTROGENS CONJUGATED,,GENITO URINARY SYSTEM AND SEX HORMONES,0.625,mg,QOD,ORAL,3,BASELINE,1,10/5/2013 07:00,2013-10-06,2013-10-29,1,24
CDISCPILOT01,CM,01-704-1017,6,2,PREMARIN,ESTROGENS CONJUGATED,,GENITO URINARY SYSTEM AND SEX HORMONES,0.625,mg,QOD,ORAL,4,WEEK 2,14,10/18/2013 07:00,2013-10-06,2013-10-29,1,24
CDISCPILOT01,CM,01-704-1017,8,2,PREMARIN,ESTROGENS CONJUGATED,,GENITO URINARY SYSTEM AND SEX HORMONES,0.625,mg,QOD,ORAL,5,WEEK 4,28,11/8/2013 10:00,2013-10-06,2013-10-29,1,24
CDISCPILOT01,CM,01-706-1384,13,6,"HYDROCORTISONE, TOPICAL",UNCODED,,UNCODED,,,TID,TOPICAL,3,BASELINE,1,9/14/2012 07:00,2012-09-15,,1,5
CDISCPILOT01,CM,01-706-1384,14,5,"HYDROCORTISONE, TOPICAL",UNCODED,,UNCODED,,,TID,TOPICAL,3,BASELINE,1,9/14/2012 07:00,2012-09-15,,1,2
CDISCPILOT01,CM,01-706-1384,19,5,"HYDROCORTISONE, TOPICAL",UNCODED,,UNCODED,,,TID,TOPICAL,4,WEEK 2,14,9/28/2012 07:00,2012-09-15,,1,2
CDISCPILOT01,CM,01-706-1384,20,6,"HYDROCORTISONE, TOPICAL",UNCODED,,UNCODED,,,TID,TOPICAL,4,WEEK 2,14,9/28/2012 07:00,2012-09-15,,1,2
CDISCPILOT01,CM,01-706-1384,25,6,"HYDROCORTISONE, TOPICAL",UNCODED,,UNCODED,,,TID,TOPICAL,201,RETRIEVAL,168,6/21/2013 07:00,2012-09-15,,1,2
CDISCPILOT01,CM,01-706-1384,26,5,"HYDROCORTISONE, TOPICAL",UNCODED,,UNCODED,,,TID,TOPICAL,201,RETRIEVAL,168,6/21/2013 07:00,2012-09-15,,1,2
CDISCPILOT01,CM,01-708-1032,10,4,LORAZEPAM,UNCODED,,UNCODED,0.500,mg,PRN,ORAL,3,BASELINE,1,2/8/2013 10:00,2013-02-09,2013-02-22,1,14
CDISCPILOT01,CM,01-708-1032,13,4,LORAZEPAM,UNCODED,,UNCODED,0.500,mg,PRN,ORAL,4,WEEK 2,14,2/22/2013 10:00,2013-02-09,2013-02-22,1,14
CDISCPILOT01,CM,01-708-1084,10,5,LORAZEPAM,UNCODED,PRIMARY STUDY CONDITION,UNCODED,2.000,mg,PRN,ORAL,3,BASELINE,1,5/8/2013 07:00,2013-05-09,2013-05-21,1,13
CDISCPILOT01,CM,01-708-1084,13,5,LORAZEPAM,UNCODED,PRIMARY STUDY CONDITION,UNCODED,2.000,mg,PRN,ORAL,4,WEEK 2,14,5/22/2013 07:00,2013-05-09,2013-05-21,1,13
CDISCPILOT01,CM,01-709-1329,26,10,ATIVAN,UNCODED,PRIMARY STUDY CONDITION,UNCODED,0.500,mg,PRN,ORAL,3,BASELINE,1,8/14/2013 07:00,2013-08-15,,1,2
CDISCPILOT01,CM,01-709-1329,33,10,ATIVAN,UNCODED,PRIMARY STUDY CONDITION,UNCODED,0.500,mg,PRN,ORAL,4,WEEK 2,14,8/28/2013 07:00,2013-08-15,,1,2
CDISCPILOT01,CM,01-709-1329,27,12,CHLORAL HYDRATE,UNCODED,PRIMARY STUDY CONDITION,UNCODED,500.000,mg,PRN,ORAL,3,BASELINE,1,8/14/2013 07:00,2013-08-15,,1,2
CDISCPILOT01,CM,01-709-1329,34,12,CHLORAL HYDRATE,UNCODED,PRIMARY STUDY CONDITION,UNCODED,500.000,mg,PRN,ORAL,4,WEEK 2,14,8/28/2013 07:00,2013-08-15,,1,5
CDISCPILOT01,CM,01-711-1036,4,1,ASPIRIN,ACETYLSALICYLIC ACID,,NERVOUS SYSTEM,2.000,TABLET,ONCE,ORAL,3,BASELINE,1,7/28/2012 07:00,2012-07-29,,1,5
CDISCPILOT01,CM,01-711-1036,6,1,ASPIRIN,ACETYLSALICYLIC ACID,,NERVOUS SYSTEM,2.000,TABLET,ONCE,ORAL,4,WEEK 2,14,8/11/2012 07:00,2012-07-29,,1,5
CDISCPILOT01,CM,01-711-1036,10,1,ASPIRIN,ACETYLSALICYLIC ACID,,NERVOUS SYSTEM,2.000,TABLET,ONCE,ORAL,5,WEEK 4,28,8/28/2012 07:00,2012-07-29,,1,5
CDISCPILOT01,CM,01-711-1036,14,1,ASPIRIN,ACETYLSALICYLIC ACID,,NERVOUS SYSTEM,2.000,TABLET,ONCE,ORAL,6,AMBUL ECG REMOVAL,30,8/30/2012 07:00,2012-07-29,,1,5
CDISCPILOT01,CM,01-711-1036,16,1,ASPIRIN,ACETYLSALICYLIC ACID,,NERVOUS SYSTEM,2.000,TABLET,ONCE,ORAL,7,WEEK 6,42,9/8/2012 07:00,2012-07-29,,1,5
CDISCPILOT01,CM,01-711-1036,18,1,ASPIRIN,ACETYLSALICYLIC ACID,,NERVOUS SYSTEM,2.000,TABLET,ONCE,ORAL,8,WEEK 8,56,9/22/2012 07:00,2012-07-29,,1,2
CDISCPILOT01,CM,01-711-1036,20,1,ASPIRIN,ACETYLSALICYLIC ACID,,NERVOUS SYSTEM,2.000,TABLET,ONCE,ORAL,9,WEEK 12,84,10/20/2012 07:00,2012-07-29,,1,2
CDISCPILOT01,CM,01-711-1036,22,1,ASPIRIN,ACETYLSALICYLIC ACID,,NERVOUS SYSTEM,2.000,TABLET,ONCE,ORAL,10,WEEK 16,112,11/16/2012 10:00,2012-07-29,,1,2
CDISCPILOT01,CM,01-711-1036,23,1,ASPIRIN,ACETYLSALICYLIC ACID,,NERVOUS SYSTEM,2.000,TABLET,ONCE,ORAL,11,WEEK 20,140,12/14/2012 10:00,2012-07-29,,1,2
CDISCPILOT01,CM,01-711-1036,24,1,ASPIRIN,ACETYLSALICYLIC ACID,,NERVOUS SYSTEM,2.000,TABLET,ONCE,ORAL,12,WEEK 24,168,1/12/2013 10:00,2012-07-29,,1,2
CDISCPILOT01,CM,01-711-1036,25,1,ASPIRIN,ACETYLSALICYLIC ACID,,NERVOUS SYSTEM,2.000,TABLET,ONCE,ORAL,13,WEEK 26,182,2/9/2013 10:00,2012-07-29,,1,2
CDISCPILOT01,CM,01-716-1229,16,6,CORTISONE,UNCODED,,UNCODED,0.100,%,PRN,TOPICAL,3,BASELINE,1,2/19/2013 10:00,2013-02-20,,1,2
CDISCPILOT01,CM,01-716-1229,22,6,CORTISONE,UNCODED,,UNCODED,0.100,%,PRN,TOPICAL,4,WEEK 2,14,3/5/2013 10:00,2013-02-20,,1,2
CDISCPILOT01,CM,01-716-1229,30,6,CORTISONE,UNCODED,,UNCODED,0.100,%,PRN,TOPICAL,5,WEEK 4,28,3/18/2013 10:00,2013-02-20,,1,2
CDISCPILOT01,CM,01-716-1229,38,6,CORTISONE,UNCODED,,UNCODED,0.100,%,PRN,TOPICAL,6,AMBUL ECG REMOVAL,30,3/19/2013 10:00,2013-02-20,,1,2
CDISCPILOT01,CM,01-716-1229,46,6,CORTISONE,UNCODED,,UNCODED,0.100,%,PRN,TOPICAL,7,WEEK 6,42,4/1/2013 07:00,2013-02-20,,1,2
CDISCPILOT01,CM,01-716-1229,54,6,CORTISONE,UNCODED,,UNCODED,0.100,%,PRN,TOPICAL,101,AE FOLLOW-UP,,4/1/2013 07:00,2013-02-20,,1,2
CDISCPILOT01,CM,01-717-1201,16,6,ZINC OXIDE,UNCODED,,UNCODED,1.000,VIAL,PRN,TOPICAL,3,BASELINE,1,12/18/2013 10:00,2013-12-19,,1,2
CDISCPILOT01,CM,01-717-1201,22,6,ZINC OXIDE,UNCODED,,UNCODED,1.000,VIAL,PRN,TOPICAL,4,WEEK 2,14,1/2/2014 10:00,2013-12-19,,1,3
CDISCPILOT01,CM,01-717-1201,28,6,ZINC OXIDE,UNCODED,,UNCODED,1.000,VIAL,PRN,TOPICAL,5,WEEK 4,28,1/16/2014 10:00,2013-12-19,,1,3
CDISCPILOT01,CM,01-717-1201,35,6,ZINC OXIDE,UNCODED,,UNCODED,1.000,VIAL,PRN,TOPICAL,6,AMBUL ECG REMOVAL,30,1/18/2014 10:00,2013-12-19,,1,3
CDISCPILOT01,CM,01-717-1201,42,6,ZINC OXIDE,UNCODED,,UNCODED,1.000,VIAL,PRN,TOPICAL,7,WEEK 6,42,1/29/2014 10:00,2013-12-19,,1,3
CDISCPILOT01,CM,01-717-1201,49,6,ZINC OXIDE,UNCODED,,UNCODED,1.000,VIAL,PRN,TOPICAL,8,WEEK 8,56,2/20/2014 10:00,2013-12-19,,1,3
CDISCPILOT01,CM,01-717-1357,1,1,"HYDROCORTISONE, TOPICAL",UNCODED,PROPHYLAXIS OR NON-THERAPEUTIC USE,UNCODED,2.000,VIAL,QD,TOPICAL,3,BASELINE,1,4/30/2013 07:00,2013-05-01,,1,3
CDISCPILOT01,CM,01-717-1357,2,1,"HYDROCORTISONE, TOPICAL",UNCODED,PROPHYLAXIS OR NON-THERAPEUTIC USE,UNCODED,2.000,VIAL,QD,TOPICAL,4,WEEK 2,14,5/14/2013 07:00,2013-05-01,,1,3
CDISCPILOT01,CM,01-717-1357,4,1,"HYDROCORTISONE, TOPICAL",UNCODED,PROPHYLAXIS OR NON-THERAPEUTIC USE,UNCODED,2.000,VIAL,QD,TOPICAL,5,WEEK 4,28,5/28/2013 07:00,2013-05-01,,1,3
CDISCPILOT01,CM,01-717-1357,6,1,"HYDROCORTISONE, TOPICAL",UNCODED,PROPHYLAXIS OR NON-THERAPEUTIC USE,UNCODED,2.000,VIAL,QD,TOPICAL,7,WEEK 6,42,6/12/2013 07:00,2013-05-01,,1,3
CDISCPILOT01,CM,01-717-1357,8,1,"HYDROCORTISONE, TOPICAL",UNCODED,PROPHYLAXIS OR NON-THERAPEUTIC USE,UNCODED,2.000,VIAL,QD,TOPICAL,8,WEEK 8,56,6/18/2013 07:00,2013-05-01,,1,3
CDISCPILOT01,CM,01-717-1357,10,1,"HYDROCORTISONE, TOPICAL",UNCODED,PROPHYLAXIS OR NON-THERAPEUTIC USE,UNCODED,2.000,VIAL,QD,TOPICAL,9,WEEK 12,84,7/23/2013 07:00,2013-05-01,,1,3
CDISCPILOT01,CM,01-717-1357,13,1,"HYDROCORTISONE, TOPICAL",UNCODED,PROPHYLAXIS OR NON-THERAPEUTIC USE,UNCODED,2.000,VIAL,QD,TOPICAL,10,WEEK 16,112,8/20/2013 07:00,2013-05-01,,1,3
CDISCPILOT01,CM,01-717-1357,16,1,"HYDROCORTISONE, TOPICAL",UNCODED,PROPHYLAXIS OR NON-THERAPEUTIC USE,UNCODED,2.000,VIAL,QD,TOPICAL,11,WEEK 20,140,9/17/2013 07:00,2013-05-01,,1,3
CDISCPILOT01,CM,01-717-1357,18,1,"HYDROCORTISONE, TOPICAL",UNCODED,PROPHYLAXIS OR NON-THERAPEUTIC USE,UNCODED,2.000,VIAL,QD,TOPICAL,12,WEEK 24,168,10/19/2013 07:00,2013-05-01,,1,3
CDISCPILOT01,CM,01-701-1015,17,5,NEOSPORIN /USA/,UNCODED,,UNCODED,1.000,VIAL,PRN,TOPICAL,4,WEEK 2,14,1/15/2014 10:00,2014-01-03,,2,4
CDISCPILOT01,CM,01-701-1015,22,5,NEOSPORIN /USA/,UNCODED,,UNCODED,1.000,VIAL,PRN,TOPICAL,5,WEEK 4,28,1/29/2014 10:00,2014-01-03,,2,4
CDISCPILOT01,CM,01-701-1015,27,5,NEOSPORIN /USA/,UNCODED,,UNCODED,1.000,VIAL,PRN,TOPICAL,6,AMBUL ECG REMOVAL,30,1/31/2014 10:00,2014-01-03,,2,4
CDISCPILOT01,CM,01-701-1015,32,5,NEOSPORIN /USA/,UNCODED,,UNCODED,1.000,VIAL,PRN,TOPICAL,7,WEEK 6,42,2/11/2014 10:00,2014-01-03,,2,4
CDISCPILOT01,CM,01-701-1015,37,5,NEOSPORIN /USA/,UNCODED,,UNCODED,1.000,VIAL,PRN,TOPICAL,8,WEEK 8,56,3/4/2014 10:00,2014-01-03,,2,4
CDISCPILOT01,CM,01-701-1015,42,5,NEOSPORIN /USA/,UNCODED,,UNCODED,1.000,VIAL,PRN,TOPICAL,9,WEEK 12,84,3/26/2014 10:00,2014-01-03,,2,4
CDISCPILOT01,CM,01-701-1015,47,5,NEOSPORIN /USA/,UNCODED,,UNCODED,1.000,VIAL,PRN,TOPICAL,10,WEEK 16,112,5/6/2014 07:00,2014-01-03,,2,4
CDISCPILOT01,CM,01-701-1015,53,5,NEOSPORIN /USA/,UNCODED,,UNCODED,1.000,VIAL,PRN,TOPICAL,11,WEEK 20,140,5/20/2014 07:00,2014-01-03,,2,4
CDISCPILOT01,CM,01-701-1015,59,5,NEOSPORIN /USA/,UNCODED,,UNCODED,1.000,VIAL,PRN,TOPICAL,12,WEEK 24,168,6/17/2014 07:00,2014-01-03,,2,5
CDISCPILOT01,CM,01-701-1015,65,5,NEOSPORIN /USA/,UNCODED,,UNCODED,1.000,VIAL,PRN,TOPICAL,13,WEEK 26,182,7/1/2014 07:00,2014-01-03,,2,5
CDISCPILOT01,CM,01-701-1146,29,8,ADVIL,UNCODED,,UNCODED,2.000,TABLET,TID,ORAL,4,WEEK 2,14,6/2/2013 07:00,2013-05-21,2013-05-22,2,3
CDISCPILOT01,CM,01-704-1025,13,4,LANOXIN,DIGOXIN,,CARDIOVASCULAR SYSTEM,0.500,mg,QD,ORAL,4,WEEK 2,14,10/10/2013 07:00,2013-09-28,2013-09-28,2,2
CDISCPILOT01,CM,01-704-1332,7,3,CORTISONE,UNCODED,,UNCODED,1.000,%,QD,TOPICAL,4,WEEK 2,14,12/22/2013 10:00,2013-12-10,2014-01-25,2,48
CDISCPILOT01,CM,01-704-1332,9,3,CORTISONE,UNCODED,,UNCODED,1.000,%,QD,TOPICAL,5,WEEK 4,28,1/3/2014 10:00,2013-12-10,2014-01-25,2,48
CDISCPILOT01,CM,01-704-1332,11,3,CORTISONE,UNCODED,,UNCODED,1.000,%,QD,TOPICAL,6,AMBUL ECG REMOVAL,30,1/5/2014 10:00,2013-12-10,2014-01-25,2,48
CDISCPILOT01,CM,01-704-1332,13,3,CORTISONE,UNCODED,,UNCODED,1.000,%,QD,TOPICAL,7,WEEK 6,42,1/19/2014 10:00,2013-12-10,2014-01-25,2,48
CDISCPILOT01,CM,01-704-1332,15,3,CORTISONE,UNCODED,,UNCODED,1.000,%,QD,TOPICAL,8,WEEK 8,56,2/2/2014 10:00,2013-12-10,2014-01-25,2,48
CDISCPILOT01,CM,01-710-1060,17,5,ROBITUSSIN,UNCODED,,UNCODED,1.000,CAPSULE,ONCE,ORAL,4,WEEK 2,14,1/14/2013 10:00,2013-01-02,2013-01-02,2,2
CDISCPILOT01,CM,01-713-1209,32,9,LORAZEPAM,UNCODED,,UNCODED,0.500,mg,PRN,ORAL,4,WEEK 2,14,6/13/2013 07:00,2013-05-28,2013-06-12,2,17
CDISCPILOT01,CM,01-716-1373,21,6,CORTISONE,UNCODED,,UNCODED,0.100,%,PRN,TOPICAL,4,WEEK 2,14,12/29/2012 10:00,2012-12-15,,2,5
CDISCPILOT01,CM,01-716-1373,27,6,CORTISONE,UNCODED,,UNCODED,0.100,%,PRN,TOPICAL,5,WEEK 4,28,1/9/2013 10:00,2012-12-15,,2,5
CDISCPILOT01,CM,01-716-1373,33,6,CORTISONE,UNCODED,,UNCODED,0.100,%,PRN,TOPICAL,6,AMBUL ECG REMOVAL,30,1/11/2013 10:00,2012-12-15,,2,5
CDISCPILOT01,CM,01-716-1373,39,6,CORTISONE,UNCODED,,UNCODED,0.100,%,PRN,TOPICAL,7,WEEK 6,42,1/25/2013 10:00,2012-12-15,,2,5
CDISCPILOT01,CM,01-716-1373,45,6,CORTISONE,UNCODED,,UNCODED,0.100,%,PRN,TOPICAL,8,WEEK 8,56,2/8/2013 10:00,2012-12-15,,2,5
CDISCPILOT01,CM,01-716-1373,51,6,CORTISONE,UNCODED,,UNCODED,0.100,%,PRN,TOPICAL,9,WEEK 12,84,2/27/2013 10:00,2012-12-15,,2,5
CDISCPILOT01,CM,01-716-1373,57,6,CORTISONE,UNCODED,,UNCODED,0.100,%,PRN,TOPICAL,101,AE FOLLOW-UP,,2/27/2013 10:00,2012-12-15,,2,5
CDISCPILOT01,CM,01-717-1004,22,5,AMOXICILLIN,UNCODED,,UNCODED,1.000,TABLET,TID,ORAL,4,WEEK 2,14,1/27/2014 10:00,2014-01-16,2014-01-23,3,10
CDISCPILOT01,CM,01-717-1004,23,6,HALOTUSSIN-DM,UNCODED,,UNCODED,1.000,tsp,QD,ORAL,4,WEEK 2,14,1/27/2014 10:00,2014-01-16,2014-01-18,3,5
CDISCPILOT01,CM,01-701-1302,17,5,NEO-SYNEPHRINE,UNCODED,,UNCODED,1.000,SPRAY,PRN,NASAL,4,WEEK 2,14,9/14/2013 07:00,2013-09-01,2013-09-30,4,33
CDISCPILOT01,CM,01-701-1302,23,5,NEO-SYNEPHRINE,UNCODED,,UNCODED,1.000,SPRAY,PRN,NASAL,5,WEEK 4,28,9/23/2013 07:00,2013-09-01,2013-09-30,4,33
CDISCPILOT01,CM,01-701-1302,29,5,NEO-SYNEPHRINE,UNCODED,,UNCODED,1.000,SPRAY,PRN,NASAL,6,AMBUL ECG REMOVAL,30,9/25/2013 07:00,2013-09-01,2013-09-30,4,33
CDISCPILOT01,CM,01-701-1302,35,5,NEO-SYNEPHRINE,UNCODED,,UNCODED,1.000,SPRAY,PRN,NASAL,7,WEEK 6,42,10/7/2013 07:00,2013-09-01,2013-09-30,4,33
CDISCPILOT01,CM,01-703-1042,13,4,KAOPECTATE,UNCODED,,UNCODED,1.000,Tbsp,ONCE,ORAL,4,WEEK 2,14,3/14/2013 10:00,2013-03-05,2013-03-05,4,4
CDISCPILOT01,CM,01-704-1065,13,5,"HYDROCORTISONE, TOPICAL",UNCODED,,UNCODED,1.000,%,PRN,TOPICAL,4,WEEK 2,14,11/6/2013 10:00,2013-10-27,2013-11-14,4,22
CDISCPILOT01,CM,01-704-1065,17,5,"HYDROCORTISONE, TOPICAL",UNCODED,,UNCODED,1.000,%,PRN,TOPICAL,5,WEEK 4,28,11/24/2013 10:00,2013-10-27,2013-11-14,4,22
CDISCPILOT01,CM,01-703-1119,37,2,PREMARIN,ESTROGENS CONJUGATED,PROPHYLAXIS OR NON-THERAPEUTIC USE,GENITO URINARY SYSTEM AND SEX HORMONES,0.300,mg,QD,ORAL,101,AE FOLLOW-UP,,7/19/2013 07:00,2012-01-13,,5,21
CDISCPILOT01,CM,01-703-1119,39,3,ZOCOR,UNCODED,,UNCODED,10.000,mg,QD,ORAL,101,AE FOLLOW-UP,,7/19/2013 07:00,2013-01-20,,5,21
CDISCPILOT01,CM,01-704-1093,30,1,HYTRIN,UNCODED,,UNCODED,2.000,mg,QD,ORAL,101,AE FOLLOW-UP,,7/25/2013 07:00,2013-02-02,,5,21
CDISCPILOT01,CM,01-704-1266,44,4,ZESTRIL,UNCODED,,UNCODED,5.000,mg,QD,ORAL,101,AE FOLLOW-UP,,1/2/2014 10:00,2013-06-20,,5,21
CDISCPILOT01,CM,01-704-1323,85,10,CLARITIN,UNCODED,,UNCODED,10.000,mg,QD,ORAL,101,AE FOLLOW-UP,,9/30/2013 07:00,2013-06-23,,5,21
CDISCPILOT01,CM,01-704-1323,84,4,FOSAMAX,UNCODED,,UNCODED,10.000,mg,QD,ORAL,101,AE FOLLOW-UP,,9/30/2013 07:00,2013-05-09,,5,21
CDISCPILOT01,CM,01-708-1216,20,2,NORVASC,AMLODIPINE,,CARDIOVASCULAR SYSTEM,5.000,mg,QD,ORAL,101,AE FOLLOW-UP,,1/8/2013 10:00,2012-10-10,,5,21
CDISCPILOT01,CM,01-701-1181,21,6,MOTRIN,UNCODED,,UNCODED,200.000,mg,ONCE,ORAL,4,WEEK 2,14,12/11/2013 10:00,2013-12-09,2013-12-09,5,5
CDISCPILOT01,CM,01-701-1111,19,1,KEFLEX,UNCODED,,UNCODED,500.000,mg,QID,ORAL,3,BASELINE,1,9/6/2012 07:00,2012-07-08,,5,10
CDISCPILOT01,CM,01-701-1118,5,1,ASPIRIN,ACETYLSALICYLIC ACID,PROPHYLAXIS OR NON-THERAPEUTIC USE,NERVOUS SYSTEM,325.000,mg,PRN,ORAL,3,BASELINE,1,3/12/2014 10:00,2000-12-10,,5,10
CDISCPILOT01,CM,01-701-1118,6,2,MULTIVITAMIN,UNCODED,PROPHYLAXIS OR NON-THERAPEUTIC USE,UNCODED,1.000,TABLET,QD,ORAL,3,BASELINE,1,3/12/2014 10:00,2012-01-21,,5,10
CDISCPILOT01,CM,01-701-1181,15,5,VITAMIN E,UNCODED,PROPHYLAXIS OR NON-THERAPEUTIC USE,UNCODED,1.000,TABLET,QD,ORAL,3,BASELINE,1,12/4/2013 10:00,2012-06-04,,5,10
CDISCPILOT01,CM,01-701-1192,6,2,MULTIVITAMINS,UNCODED,PROPHYLAXIS OR NON-THERAPEUTIC USE,UNCODED,2.000,TABLET,TID,ORAL,3,BASELINE,1,7/21/2012 07:00,2011-05-19,,5,10
CDISCPILOT01,CM,01-701-1287,6,2,PREMARIN,ESTROGENS CONJUGATED,PROPHYLAXIS OR NON-THERAPEUTIC USE,GENITO URINARY SYSTEM AND SEX HORMONES,0.625,mg,QD,ORAL,3,BASELINE,1,1/24/2014 10:00,2013-06-28,,5,10
CDISCPILOT01,CM,01-701-1302,12,3,METAMUCIL,UNCODED,,UNCODED,2.000,Tbsp,QD,ORAL,3,BASELINE,1,8/28/2013 07:00,2012-03-01,,5,10
CDISCPILOT01,CM,01-701-1392,12,4,ZESTRIL,UNCODED,,UNCODED,5.000,mg,QD,ORAL,3,BASELINE,1,10/27/2012 07:00,2011-03-17,,5,10
CDISCPILOT01,CM,01-703-1042,9,1,NORVASC,AMLODIPINE,,CARDIOVASCULAR SYSTEM,5.000,mg,QD,ORAL,3,BASELINE,1,3/1/2013 10:00,2013-01-27,,5,10
CDISCPILOT01,CM,01-703-1076,9,3,LOPID,UNCODED,,UNCODED,600.000,mg,BID,ORAL,3,BASELINE,1,10/24/2013 07:00,2013-08-31,2013-11-27,5,10
CDISCPILOT01,CM,01-701-1302,18,6,PSEUDOEPHEDRINE HYDROCHLORIDE,UNCODED,,UNCODED,2.000,TABLET,Q4H,ORAL,4,WEEK 2,14,9/14/2013 07:00,2013-09-02,2013-09-30,5,33
CDISCPILOT01,CM,01-701-1302,24,6,PSEUDOEPHEDRINE HYDROCHLORIDE,UNCODED,,UNCODED,2.000,TABLET,Q4H,ORAL,5,WEEK 4,28,9/23/2013 07:00,2013-09-02,2013-09-30,5,33
CDISCPILOT01,CM,01-701-1302,30,6,PSEUDOEPHEDRINE HYDROCHLORIDE,UNCODED,,UNCODED,2.000,TABLET,Q4H,ORAL,6,AMBUL ECG REMOVAL,30,9/25/2013 07:00,2013-09-02,2013-09-30,5,33
CDISCPILOT01,CM,01-701-1302,36,6,PSEUDOEPHEDRINE HYDROCHLORIDE,UNCODED,,UNCODED,2.000,TABLET,Q4H,ORAL,7,WEEK 6,42,10/7/2013 07:00,2013-09-02,2013-09-30,5,33
CDISCPILOT01,CM,01-701-1360,9,3,"HYDROCORTISONE, TOPICAL",UNCODED,,UNCODED,1.000,VIAL,PRN,TOPICAL,4,WEEK 2,14,8/13/2013 07:00,2013-08-04,2013-08-12,5,13
CDISCPILOT01,CM,01-703-1076,8,2,TIMOPTIC,UNCODED,,UNCODED,1.000,gtt,EVERY NIGHT,OPHTHALMIC,3,BASELINE,1,10/24/2013 07:00,2012-11-13,,5,10
CDISCPILOT01,CM,01-703-1100,9,3,VITAMIN B12,UNCODED,PROPHYLAXIS OR NON-THERAPEUTIC USE,UNCODED,15.000,ug,PRN,ORAL,3,BASELINE,1,3/13/2013 10:00,2012-01-19,,5,10
CDISCPILOT01,CM,01-703-1119,8,1,NORVASC,AMLODIPINE,,CARDIOVASCULAR SYSTEM,5.000,mg,QD,ORAL,3,BASELINE,1,2/19/2013 10:00,2013-01-20,,5,10
CDISCPILOT01,CM,01-703-1119,7,2,PREMARIN,ESTROGENS CONJUGATED,PROPHYLAXIS OR NON-THERAPEUTIC USE,GENITO URINARY SYSTEM AND SEX HORMONES,0.300,mg,QD,ORAL,3,BASELINE,1,2/19/2013 10:00,2012-01-13,,5,10
CDISCPILOT01,CM,01-703-1119,9,3,ZOCOR,UNCODED,,UNCODED,10.000,mg,QD,ORAL,3,BASELINE,1,2/19/2013 10:00,2013-01-20,,5,10
CDISCPILOT01,CM,01-703-1379,9,2,MONOPRIL,UNCODED,,UNCODED,10.000,mg,QD,ORAL,3,BASELINE,1,9/21/2013 07:00,2013-06-07,,5,10
CDISCPILOT01,CM,01-704-1008,9,3,SYNTHROID,UNCODED,,UNCODED,0.075,mg,QD,ORAL,3,BASELINE,1,1/12/2013 10:00,2012-12-09,2013-02-07,5,10
CDISCPILOT01,CM,01-704-1009,12,3,MULTIVITAMIN,UNCODED,PROPHYLAXIS OR NON-THERAPEUTIC USE,UNCODED,1.000,TABLET,QD,ORAL,3,BASELINE,1,8/26/2013 07:00,2013-08-08,,5,10
CDISCPILOT01,CM,01-704-1093,8,1,HYTRIN,UNCODED,,UNCODED,2.000,mg,QD,ORAL,3,BASELINE,1,3/15/2013 10:00,2013-02-02,,5,10
CDISCPILOT01,CM,01-704-1127,3,1,MULTIVITAMIN,UNCODED,PROPHYLAXIS OR NON-THERAPEUTIC USE,UNCODED,1.000,TABLET,QD,ORAL,3,BASELINE,1,10/1/2013 07:00,2010-08-11,,5,10
CDISCPILOT01,CM,01-704-1266,13,4,ZESTRIL,UNCODED,,UNCODED,5.000,mg,QD,ORAL,3,BASELINE,1,10/12/2013 07:00,2013-06-20,,5,10
CDISCPILOT01,CM,01-704-1323,31,10,CLARITIN,UNCODED,,UNCODED,10.000,mg,QD,ORAL,3,BASELINE,1,7/7/2013 07:00,2013-06-23,,5,10
CDISCPILOT01,CM,01-704-1323,30,4,FOSAMAX,UNCODED,,UNCODED,10.000,mg,QD,ORAL,3,BASELINE,1,7/7/2013 07:00,2013-05-09,,5,10
CDISCPILOT01,CM,01-704-1435,18,2,BENZALKONIUM CHLORIDE,UNCODED,,UNCODED,1.000,,QD,OPHTHALMIC,3,BASELINE,1,11/16/2012 10:00,2012-08-08,,5,10
CDISCPILOT01,CM,01-707-1037,19,2,COZAAR,LOSARTAN POTASSIUM,,CARDIOVASCULAR SYSTEM,50.000,mg,QD,ORAL,3,BASELINE,1,12/19/2013 10:00,2013-11-19,,5,10
CDISCPILOT01,CM,01-707-1037,18,6,SYNTHROID,UNCODED,,UNCODED,0.500,mg,QD,ORAL,3,BASELINE,1,12/19/2013 10:00,2013-08-24,,5,10
CDISCPILOT01,CM,01-707-1037,20,7,VASOTEC,UNCODED,,UNCODED,5.000,mg,QD,ORAL,3,BASELINE,1,12/19/2013 10:00,2013-11-19,,5,10
CDISCPILOT01,CM,01-708-1084,8,3,TIMOPTIC,UNCODED,,UNCODED,1.000,gtt,QD,OPHTHALMIC,3,BASELINE,1,5/8/2013 07:00,2013-04-26,,5,10
CDISCPILOT01,CM,01-708-1178,6,1,MAXZIDE,UNCODED,,UNCODED,1.000,TABLET,QD,ORAL,3,BASELINE,1,12/28/2013 10:00,2013-12-13,,5,10
CDISCPILOT01,CM,01-708-1216,7,2,NORVASC,AMLODIPINE,,CARDIOVASCULAR SYSTEM,5.000,mg,QD,ORAL,3,BASELINE,1,10/23/2012 07:00,2012-10-10,,5,10
CDISCPILOT01,CM,01-708-1336,6,4,PRINIVIL,UNCODED,,UNCODED,10.000,mg,QD,ORAL,3,BASELINE,1,12/6/2012 10:00,2011-07-15,2013-06-05,5,10
CDISCPILOT01,CM,01-709-1001,15,4,ZINC,UNCODED,PROPHYLAXIS OR NON-THERAPEUTIC USE,UNCODED,1.000,TABLET,QD,ORAL,3,BASELINE,1,10/7/2013 07:00,2012-09-05,,5,10
CDISCPILOT01,CM,01-709-1001,19,5,ZOCOR,UNCODED,,UNCODED,10.000,mg,QD,ORAL,3,BASELINE,1,10/7/2013 07:00,2013-07-08,,5,10
CDISCPILOT01,CM,01-709-1020,6,1,ADVIL,UNCODED,PROPHYLAXIS OR NON-THERAPEUTIC USE,UNCODED,1.000,TABLET,PRN,ORAL,3,BASELINE,1,11/30/2012 10:00,2012-11-14,,5,10
CDISCPILOT01,CM,01-709-1312,12,2,NORVASC,AMLODIPINE,,CARDIOVASCULAR SYSTEM,5.000,mg,QD,ORAL,3,BASELINE,1,4/19/2014 07:00,2014-03-24,,5,10
CDISCPILOT01,CM,01-709-1329,24,9,ATIVAN,UNCODED,PRIMARY STUDY CONDITION,UNCODED,0.500,mg,PRN,ORAL,3,BASELINE,1,8/14/2013 07:00,2013-08-01,2013-08-14,5,10
CDISCPILOT01,CM,01-709-1329,25,11,CHLORAL HYDRATE,UNCODED,PRIMARY STUDY CONDITION,UNCODED,500.000,mg,PRN,ORAL,3,BASELINE,1,8/14/2013 07:00,2013-08-01,2013-08-14,5,10
CDISCPILOT01,CM,01-710-1060,12,3,PREDNISONE,UNCODED,,UNCODED,1.000,%,QD,OPHTHALMIC,3,BASELINE,1,12/31/2012 10:00,2012-04-18,,5,10
CDISCPILOT01,CM,01-711-1012,7,2,DYAZIDE,UNCODED,,UNCODED,37.500,mg,QD,ORAL,3,BASELINE,1,4/2/2013 07:00,2013-03-02,,5,10
CDISCPILOT01,CM,01-711-1036,3,4,ALBUTEROL,UNCODED,,UNCODED,2.000,PUFF,QID,RESPIRATORY (INHALATION),3,BASELINE,1,7/28/2012 07:00,2011-10-12,2012-10-22,5,10
CDISCPILOT01,CM,01-711-1143,6,4,SYNTHROID,UNCODED,,UNCODED,0.150,mg,QD,ORAL,3,BASELINE,1,4/2/2013 07:00,2009-03-03,2013-05-20,5,10
CDISCPILOT01,CM,01-711-1433,9,5,MONOPRIL,UNCODED,,UNCODED,10.000,mg,BID,ORAL,3,BASELINE,1,1/26/2013 10:00,2013-01-14,2013-02-04,5,10
CDISCPILOT01,CM,01-711-1433,8,2,SURFAK,UNCODED,,UNCODED,240.000,mg,QD,ORAL,3,BASELINE,1,1/26/2013 10:00,2012-04-30,,5,10
CDISCPILOT01,CM,01-713-1043,6,2,IBUPROFEN,UNCODED,PROPHYLAXIS OR NON-THERAPEUTIC USE,UNCODED,400.000,mg,QD,ORAL,3,BASELINE,1,9/14/2013 07:00,2013-06-21,,5,10
CDISCPILOT01,CM,01-713-1073,15,1,ASPIRIN (E.C.),UNCODED,,UNCODED,325.000,mg,QD,ORAL,3,BASELINE,1,3/30/2014 09:00,2014-01-27,,5,10
CDISCPILOT01,CM,01-713-1073,14,5,VITAMIN B12,UNCODED,,UNCODED,1000.000,ug,QM,INTRAMUSCULAR,3,BASELINE,1,3/30/2014 09:00,2013-07-20,,5,10
CDISCPILOT01,CM,01-713-1209,24,1,AXID,NIZATIDINE,,ALIMENTARY TRACT AND METABOLISM,150.000,mg,QD,ORAL,3,BASELINE,1,5/26/2013 07:00,2013-05-09,,5,10
CDISCPILOT01,CM,01-713-1209,23,8,LORAZEPAM,UNCODED,,UNCODED,0.500,mg,PRN,ORAL,3,BASELINE,1,5/26/2013 07:00,2013-04-26,2013-05-25,5,10
CDISCPILOT01,CM,01-713-1209,22,3,QUESTRAN,UNCODED,PROPHYLAXIS OR NON-THERAPEUTIC USE,UNCODED,0.500,,TID,ORAL,3,BASELINE,1,5/26/2013 07:00,2012-10-31,,5,10
CDISCPILOT01,CM,01-713-1269,9,3,VITAMIN E,UNCODED,PROPHYLAXIS OR NON-THERAPEUTIC USE,UNCODED,1000.000,IU,BID,ORAL,3,BASELINE,1,1/26/2014 10:00,2013-11-02,,5,10
CDISCPILOT01,CM,01-714-1068,10,1,CALCIUM,CALCIUM,,ALIMENTARY TRACT AND METABOLISM,500.000,mg,TID,ORAL,3,BASELINE,1,8/7/2013 07:00,2012-09-25,,5,10
CDISCPILOT01,CM,01-715-1397,8,1,GLUCOPHAGE,METFORMIN HYDROCHLORIDE,,ALIMENTARY TRACT AND METABOLISM,850.000,mg,TID,ORAL,3,BASELINE,1,4/2/2013 07:00,2011-10-28,,5,10
CDISCPILOT01,CM,01-716-1026,16,4,MONOPRIL,UNCODED,,UNCODED,20.000,mg,QD,ORAL,3,BASELINE,1,4/1/2014 07:00,2014-02-26,,5,10
CDISCPILOT01,CM,01-716-1071,15,1,CHLORAL HYDRATE,UNCODED,,UNCODED,500.000,mg,PRN,ORAL,3,BASELINE,1,6/7/2013 07:00,2013-05-26,,5,10
CDISCPILOT01,CM,01-716-1157,33,3,CARDURA,DOXAZOSIN MESILATE,,CARDIOVASCULAR SYSTEM,2.000,mg,QD,ORAL,3,BASELINE,1,10/1/2013 07:00,2013-09-21,,5,10
CDISCPILOT01,CM,01-716-1189,5,1,AXID,NIZATIDINE,,ALIMENTARY TRACT AND METABOLISM,75.000,mg,BID,ORAL,3,BASELINE,1,10/8/2012 07:00,2012-09-29,,5,10
CDISCPILOT01,CM,01-716-1189,6,2,MILK OF MAGNESIA,UNCODED,PROPHYLAXIS OR NON-THERAPEUTIC USE,UNCODED,1.000,Tbsp,QD,ORAL,3,BASELINE,1,10/8/2012 07:00,2012-09-29,,5,10
CDISCPILOT01,CM,01-717-1004,15,2,FOSAMAX,UNCODED,,UNCODED,10.000,mg,QD,ORAL,3,BASELINE,1,1/13/2014 10:00,2013-01-26,,5,10
CDISCPILOT01,CM,01-717-1004,16,13,FUROSEMIDE,UNCODED,,UNCODED,40.000,mg,QD,ORAL,3,BASELINE,1,1/13/2014 10:00,2013-08-20,2014-04-24,5,10
CDISCPILOT01,CM,01-717-1109,5,1,SYNTHROID,UNCODED,,UNCODED,0.100,mg,QD,ORAL,3,BASELINE,1,1/26/2014 10:00,2012-01-13,,5,10
CDISCPILOT01,CM,01-718-1150,10,1,MULTIVITAMIN,UNCODED,PROPHYLAXIS OR NON-THERAPEUTIC USE,UNCODED,1.000,TABLET,QD,ORAL,3,BASELINE,1,1/18/2013 10:00,2012-10-27,,5,10
CDISCPILOT01,CM,01-718-1150,9,2,VITAMIN B12,UNCODED,,UNCODED,1000.000,mg,Q4S,INTRAMUSCULAR,3,BASELINE,1,1/18/2013 10:00,2012-06-27,,5,10
CDISCPILOT01,CM,01-718-1170,6,2,MULTIVITAMIN,UNCODED,PROPHYLAXIS OR NON-THERAPEUTIC USE,UNCODED,1.000,TABLET,QD,ORAL,3,BASELINE,1,9/15/2013 07:00,2012-09-28,,5,10
CDISCPILOT01,CM,01-718-1170,7,3,TYLENOL,UNCODED,PROPHYLAXIS OR NON-THERAPEUTIC USE,UNCODED,325.000,mg,QD,ORAL,3,BASELINE,1,9/15/2013 07:00,2012-09-28,,5,10
CDISCPILOT01,CM,01-701-1111,37,1,KEFLEX,UNCODED,,UNCODED,500.000,mg,QID,ORAL,201,RETRIEVAL,168,2/21/2013 10:00,2012-07-08,,5,10
CDISCPILOT01,CM,01-701-1181,31,5,VITAMIN E,UNCODED,PROPHYLAXIS OR NON-THERAPEUTIC USE,UNCODED,1.000,TABLET,QD,ORAL,201,RETRIEVAL,168,5/22/2014 07:00,2012-06-04,,5,10
CDISCPILOT01,CM,01-701-1302,52,3,METAMUCIL,UNCODED,,UNCODED,2.000,Tbsp,QD,ORAL,201,RETRIEVAL,168,2/12/2014 10:00,2012-03-01,,5,10
CDISCPILOT01,CM,01-703-1119,43,1,NORVASC,AMLODIPINE,,CARDIOVASCULAR SYSTEM,5.000,mg,QD,ORAL,201,RETRIEVAL,168,8/23/2013 07:00,2013-01-20,,5,10
CDISCPILOT01,CM,01-703-1119,42,2,PREMARIN,ESTROGENS CONJUGATED,PROPHYLAXIS OR NON-THERAPEUTIC USE,GENITO URINARY SYSTEM AND SEX HORMONES,0.300,mg,QD,ORAL,201,RETRIEVAL,168,8/23/2013 07:00,2012-01-13,,5,10
CDISCPILOT01,CM,01-703-1119,44,3,ZOCOR,UNCODED,,UNCODED,10.000,mg,QD,ORAL,201,RETRIEVAL,168,8/23/2013 07:00,2013-01-20,,5,10
CDISCPILOT01,CM,01-704-1093,34,1,HYTRIN,UNCODED,,UNCODED,2.000,mg,QD,ORAL,201,RETRIEVAL,168,12/24/2013 10:00,2013-02-02,,5,10
CDISCPILOT01,CM,01-711-1012,21,2,DYAZIDE,UNCODED,,UNCODED,37.500,mg,QD,ORAL,201,RETRIEVAL,168,9/17/2013 07:00,2013-03-02,,5,10
CDISCPILOT01,CM,01-716-1071,50,1,CHLORAL HYDRATE,UNCODED,,UNCODED,500.000,mg,PRN,ORAL,201,RETRIEVAL,168,12/15/2013 10:00,2013-05-26,,5,10
CDISCPILOT01,CM,01-716-1189,31,1,AXID,NIZATIDINE,,ALIMENTARY TRACT AND METABOLISM,75.000,mg,BID,ORAL,201,RETRIEVAL,168,4/7/2013 07:00,2012-09-29,,5,10
CDISCPILOT01,CM,01-716-1189,32,2,MILK OF MAGNESIA,UNCODED,PROPHYLAXIS OR NON-THERAPEUTIC USE,UNCODED,1.000,Tbsp,QD,ORAL,201,RETRIEVAL,168,4/7/2013 07:00,2012-09-29,,5,10
CDISCPILOT01,CM,01-718-1170,15,2,MULTIVITAMIN,UNCODED,PROPHYLAXIS OR NON-THERAPEUTIC USE,UNCODED,1.000,TABLET,QD,ORAL,201,RETRIEVAL,168,3/15/2014 10:00,2012-09-28,,5,10
CDISCPILOT01,CM,01-718-1170,16,3,TYLENOL,UNCODED,PROPHYLAXIS OR NON-THERAPEUTIC USE,UNCODED,325.000,mg,QD,ORAL,201,RETRIEVAL,168,3/15/2014 10:00,2012-09-28,,5,10
CDISCPILOT01,CM,01-701-1111,6,1,KEFLEX,UNCODED,,UNCODED,500.000,mg,QID,ORAL,1,SCREENING 1,-7,8/24/2012 07:00,2012-07-08,,5,10
CDISCPILOT01,CM,01-701-1118,1,1,ASPIRIN,ACETYLSALICYLIC ACID,PROPHYLAXIS OR NON-THERAPEUTIC USE,NERVOUS SYSTEM,325.000,mg,PRN,ORAL,1,SCREENING 1,-7,2/26/2014 10:00,2000-12-10,,5,10
CDISCPILOT01,CM,01-701-1118,2,2,MULTIVITAMIN,UNCODED,PROPHYLAXIS OR NON-THERAPEUTIC USE,UNCODED,1.000,TABLET,QD,ORAL,1,SCREENING 1,-7,2/26/2014 10:00,2012-01-21,,5,10
CDISCPILOT01,CM,01-701-1181,5,5,VITAMIN E,UNCODED,PROPHYLAXIS OR NON-THERAPEUTIC USE,UNCODED,1.000,TABLET,QD,ORAL,1,SCREENING 1,-7,11/25/2013 10:00,2012-06-04,,5,10
CDISCPILOT01,CM,01-701-1192,2,2,MULTIVITAMINS,UNCODED,PROPHYLAXIS OR NON-THERAPEUTIC USE,UNCODED,2.000,TABLET,TID,ORAL,1,SCREENING 1,-7,7/7/2012 07:00,2011-05-19,,5,10
CDISCPILOT01,CM,01-701-1287,2,2,PREMARIN,ESTROGENS CONJUGATED,PROPHYLAXIS OR NON-THERAPEUTIC USE,GENITO URINARY SYSTEM AND SEX HORMONES,0.625,mg,QD,ORAL,1,SCREENING 1,-7,1/16/2014 10:00,2013-06-28,,5,10
CDISCPILOT01,CM,01-701-1302,4,3,METAMUCIL,UNCODED,,UNCODED,2.000,Tbsp,QD,ORAL,1,SCREENING 1,-7,8/19/2013 07:00,2012-03-01,,5,10
CDISCPILOT01,CM,01-701-1392,4,4,ZESTRIL,UNCODED,,UNCODED,5.000,mg,QD,ORAL,1,SCREENING 1,-7,10/16/2012 07:00,2011-03-17,,5,10
CDISCPILOT01,CM,01-701-1415,3,1,AMPICILLIN,UNCODED,,UNCODED,250.000,mg,TID,ORAL,1,SCREENING 1,-7,9/14/2013 07:00,2013-08-12,2013-08-22,5,10
CDISCPILOT01,CM,01-701-1415,4,4,PROMETHAZINE HCL W/CODEINE,UNCODED,,UNCODED,1.000,tsp,ONCE,ORAL,1,SCREENING 1,-7,9/14/2013 07:00,2013-08-15,2013-08-15,5,10
CDISCPILOT01,CM,01-703-1042,3,1,NORVASC,AMLODIPINE,,CARDIOVASCULAR SYSTEM,5.000,mg,QD,ORAL,1,SCREENING 1,-7,2/22/2013 10:00,2013-01-27,,5,10
CDISCPILOT01,CM,01-703-1076,3,3,LOPID,UNCODED,,UNCODED,600.000,mg,BID,ORAL,1,SCREENING 1,-7,10/16/2013 07:00,2013-08-31,2013-11-27,5,10
CDISCPILOT01,CM,01-703-1076,2,2,TIMOPTIC,UNCODED,,UNCODED,1.000,gtt,EVERY NIGHT,OPHTHALMIC,1,SCREENING 1,-7,10/16/2013 07:00,2012-11-13,,5,10
CDISCPILOT01,CM,01-703-1100,3,3,VITAMIN B12,UNCODED,PROPHYLAXIS OR NON-THERAPEUTIC USE,UNCODED,15.000,ug,PRN,ORAL,1,SCREENING 1,-7,2/27/2013 10:00,2012-01-19,,5,10
CDISCPILOT01,CM,01-703-1119,2,1,NORVASC,AMLODIPINE,,CARDIOVASCULAR SYSTEM,5.000,mg,QD,ORAL,1,SCREENING 1,-7,2/1/2013 10:00,2013-01-20,,5,10
CDISCPILOT01,CM,01-703-1119,1,2,PREMARIN,ESTROGENS CONJUGATED,PROPHYLAXIS OR NON-THERAPEUTIC USE,GENITO URINARY SYSTEM AND SEX HORMONES,0.300,mg,QD,ORAL,1,SCREENING 1,-7,2/1/2013 10:00,2012-01-13,,5,10
CDISCPILOT01,CM,01-703-1119,3,3,ZOCOR,UNCODED,,UNCODED,10.000,mg,QD,ORAL,1,SCREENING 1,-7,2/1/2013 10:00,2013-01-20,,5,10
CDISCPILOT01,CM,01-703-1379,3,2,MONOPRIL,UNCODED,,UNCODED,10.000,mg,QD,ORAL,1,SCREENING 1,-7,9/11/2013 07:00,2013-06-07,,5,10
CDISCPILOT01,CM,01-703-1403,1,1,CIPRO,UNCODED,,UNCODED,,mg,QD,ORAL,1,SCREENING 1,-7,12/4/2012 10:00,2012-11-14,2012-11-28,5,10
CDISCPILOT01,CM,01-704-1008,3,3,SYNTHROID,UNCODED,,UNCODED,0.075,mg,QD,ORAL,1,SCREENING 1,-7,1/5/2013 10:00,2012-12-09,2013-02-07,5,10
CDISCPILOT01,CM,01-704-1009,4,3,MULTIVITAMIN,UNCODED,PROPHYLAXIS OR NON-THERAPEUTIC USE,UNCODED,1.000,TABLET,QD,ORAL,1,SCREENING 1,-7,8/19/2013 07:00,2013-08-08,,5,10
CDISCPILOT01,CM,01-704-1093,3,3,AXID,NIZATIDINE,,ALIMENTARY TRACT AND METABOLISM,150.000,mg,QD,ORAL,1,SCREENING 1,-7,2/21/2013 10:00,2013-02-15,2013-03-09,5,10
CDISCPILOT01,CM,01-704-1093,2,1,HYTRIN,UNCODED,,UNCODED,2.000,mg,QD,ORAL,1,SCREENING 1,-7,2/21/2013 10:00,2013-02-02,,5,10
CDISCPILOT01,CM,01-704-1127,1,1,MULTIVITAMIN,UNCODED,PROPHYLAXIS OR NON-THERAPEUTIC USE,UNCODED,1.000,TABLET,QD,ORAL,1,SCREENING 1,-7,9/15/2013 07:00,2010-08-11,,5,10
CDISCPILOT01,CM,01-704-1266,4,4,ZESTRIL,UNCODED,,UNCODED,5.000,mg,QD,ORAL,1,SCREENING 1,-7,10/4/2013 07:00,2013-06-20,,5,10
CDISCPILOT01,CM,01-704-1323,10,4,FOSAMAX,UNCODED,,UNCODED,10.000,mg,QD,ORAL,1,SCREENING 1,-7,6/12/2013 07:00,2013-05-09,,5,10
CDISCPILOT01,CM,01-704-1332,2,2,AMOXICILLIN,UNCODED,,UNCODED,500.000,mg,QD,ORAL,1,SCREENING 1,-7,11/23/2013 10:00,2013-11-22,2013-11-25,5,10
CDISCPILOT01,CM,01-704-1435,4,2,BENZALKONIUM CHLORIDE,UNCODED,,UNCODED,1.000,,QD,OPHTHALMIC,1,SCREENING 1,-7,11/1/2012 10:00,2012-08-08,,5,10
CDISCPILOT01,CM,01-704-1435,7,7,XANAX,ALPRAZOLAM,,NERVOUS SYSTEM,0.500,TABLET,QD,ORAL,1,SCREENING 1,-7,11/1/2012 10:00,2012-11-01,2012-11-01,5,10
CDISCPILOT01,CM,01-707-1037,7,2,COZAAR,LOSARTAN POTASSIUM,,CARDIOVASCULAR SYSTEM,50.000,mg,QD,ORAL,1,SCREENING 1,-7,12/11/2013 10:00,2013-11-19,,5,10
CDISCPILOT01,CM,01-707-1037,6,6,SYNTHROID,UNCODED,,UNCODED,0.500,mg,QD,ORAL,1,SCREENING 1,-7,12/11/2013 10:00,2013-08-24,,5,10
CDISCPILOT01,CM,01-707-1037,8,7,VASOTEC,UNCODED,,UNCODED,5.000,mg,QD,ORAL,1,SCREENING 1,-7,12/11/2013 10:00,2013-11-19,,5,10
CDISCPILOT01,CM,01-708-1084,2,1,LORAZEPAM,UNCODED,PRIMARY STUDY CONDITION,UNCODED,2.000,mg,PRN,ORAL,1,SCREENING 1,-7,4/30/2013 07:00,2013-04-17,2013-04-30,5,10
CDISCPILOT01,CM,01-708-1084,3,3,TIMOPTIC,UNCODED,,UNCODED,1.000,gtt,QD,OPHTHALMIC,1,SCREENING 1,-7,4/30/2013 07:00,2013-04-26,,5,10
CDISCPILOT01,CM,01-708-1178,2,1,MAXZIDE,UNCODED,,UNCODED,1.000,TABLET,QD,ORAL,1,SCREENING 1,-7,12/12/2013 10:00,2013-12-13,,5,10
CDISCPILOT01,CM,01-708-1216,3,2,NORVASC,AMLODIPINE,,CARDIOVASCULAR SYSTEM,5.000,mg,QD,ORAL,1,SCREENING 1,-7,10/13/2012 07:00,2012-10-10,,5,10
CDISCPILOT01,CM,01-708-1336,2,4,PRINIVIL,UNCODED,,UNCODED,10.000,mg,QD,ORAL,1,SCREENING 1,-7,11/20/2012 10:00,2011-07-15,2013-06-05,5,10
CDISCPILOT01,CM,01-709-1001,1,4,ZINC,UNCODED,PROPHYLAXIS OR NON-THERAPEUTIC USE,UNCODED,1.000,TABLET,QD,ORAL,1,SCREENING 1,-7,9/19/2013 07:00,2012-09-05,,5,10
CDISCPILOT01,CM,01-709-1001,6,5,ZOCOR,UNCODED,,UNCODED,10.000,mg,QD,ORAL,1,SCREENING 1,-7,9/19/2013 07:00,2013-07-08,,5,10
CDISCPILOT01,CM,01-709-1007,4,4,ATIVAN,UNCODED,PRIMARY STUDY CONDITION,UNCODED,1.000,mg,QD,ORAL,1,SCREENING 1,-7,7/20/2012 07:00,2012-07-21,2012-07-21,5,10
CDISCPILOT01,CM,01-709-1020,2,1,ADVIL,UNCODED,PROPHYLAXIS OR NON-THERAPEUTIC USE,UNCODED,1.000,TABLET,PRN,ORAL,1,SCREENING 1,-7,11/21/2012 10:00,2012-11-14,,5,10
CDISCPILOT01,CM,01-709-1088,2,2,ATIVAN,UNCODED,PRIMARY STUDY CONDITION,UNCODED,1.000,mg,QD,ORAL,1,SCREENING 1,-7,3/30/2014 09:00,2014-03-30,2014-03-30,5,10
CDISCPILOT01,CM,01-709-1217,4,4,GINKGO BILOBA,UNCODED,PROPHYLAXIS OR NON-THERAPEUTIC USE,UNCODED,1.000,TABLET,QD,ORAL,1,SCREENING 1,-7,2/15/2013 10:00,2013-01-15,2013-02-17,5,10
CDISCPILOT01,CM,01-709-1285,5,3,LOPRESSOR,UNCODED,,UNCODED,25.000,mg,BID,ORAL,1,SCREENING 1,-7,3/17/2013 10:00,2013-03-09,2013-03-15,5,10
CDISCPILOT01,CM,01-709-1312,4,2,NORVASC,AMLODIPINE,,CARDIOVASCULAR SYSTEM,5.000,mg,QD,ORAL,1,SCREENING 1,-7,4/12/2014 07:00,2014-03-24,,5,10
CDISCPILOT01,CM,01-709-1329,8,1,ATIVAN,UNCODED,PRIMARY STUDY CONDITION,UNCODED,0.500,mg,PRN,ORAL,1,SCREENING 1,-7,7/31/2013 07:00,2013-06-11,2013-07-31,5,10
CDISCPILOT01,CM,01-709-1329,9,9,ATIVAN,UNCODED,PRIMARY STUDY CONDITION,UNCODED,0.500,mg,PRN,ORAL,1,SCREENING 1,-7,7/31/2013 07:00,2013-08-01,2013-08-14,5,10
CDISCPILOT01,CM,01-709-1329,7,3,CHLORAL HYDRATE,UNCODED,PRIMARY STUDY CONDITION,UNCODED,500.000,mg,PRN,ORAL,1,SCREENING 1,-7,7/31/2013 07:00,2013-05-19,2013-07-31,5,10
CDISCPILOT01,CM,01-709-1329,10,11,CHLORAL HYDRATE,UNCODED,PRIMARY STUDY CONDITION,UNCODED,500.000,mg,PRN,ORAL,1,SCREENING 1,-7,7/31/2013 07:00,2013-08-01,2013-08-14,5,10
CDISCPILOT01,CM,01-710-1060,4,3,PREDNISONE,UNCODED,,UNCODED,1.000,%,QD,OPHTHALMIC,1,SCREENING 1,-7,12/23/2012 10:00,2012-04-18,,5,10
CDISCPILOT01,CM,01-711-1012,2,2,DYAZIDE,UNCODED,,UNCODED,37.500,mg,QD,ORAL,1,SCREENING 1,-7,3/20/2013 10:00,2013-03-02,,5,10
CDISCPILOT01,CM,01-711-1036,1,4,ALBUTEROL,UNCODED,,UNCODED,2.000,PUFF,QID,RESPIRATORY (INHALATION),1,SCREENING 1,-7,7/19/2012 07:00,2011-10-12,2012-10-22,5,10
CDISCPILOT01,CM,01-711-1143,2,4,SYNTHROID,UNCODED,,UNCODED,0.150,mg,QD,ORAL,1,SCREENING 1,-7,3/30/2013 10:00,2009-03-03,2013-05-20,5,10
CDISCPILOT01,CM,01-711-1433,2,1,MONOPRIL,UNCODED,,UNCODED,10.000,mg,QD,ORAL,1,SCREENING 1,-7,1/22/2013 10:00,2012-12-30,2013-01-13,5,10
CDISCPILOT01,CM,01-711-1433,3,5,MONOPRIL,UNCODED,,UNCODED,10.000,mg,BID,ORAL,1,SCREENING 1,-7,1/22/2013 10:00,2013-01-14,2013-02-04,5,10
CDISCPILOT01,CM,01-711-1433,1,2,SURFAK,UNCODED,,UNCODED,240.000,mg,QD,ORAL,1,SCREENING 1,-7,1/22/2013 10:00,2012-04-30,,5,10
CDISCPILOT01,CM,01-713-1043,2,2,IBUPROFEN,UNCODED,PROPHYLAXIS OR NON-THERAPEUTIC USE,UNCODED,400.000,mg,QD,ORAL,1,SCREENING 1,-7,8/16/2013 07:00,2013-06-21,,5,10
CDISCPILOT01,CM,01-713-1073,5,1,ASPIRIN (E.C.),UNCODED,,UNCODED,325.000,mg,QD,ORAL,1,SCREENING 1,-7,3/15/2014 10:00,2014-01-27,,5,10
CDISCPILOT01,CM,01-713-1073,4,5,VITAMIN B12,UNCODED,,UNCODED,1000.000,ug,QM,INTRAMUSCULAR,1,SCREENING 1,-7,3/15/2014 10:00,2013-07-20,,5,10
CDISCPILOT01,CM,01-713-1209,8,1,AXID,NIZATIDINE,,ALIMENTARY TRACT AND METABOLISM,150.000,mg,QD,ORAL,1,SCREENING 1,-7,5/15/2013 07:00,2013-05-09,,5,10
CDISCPILOT01,CM,01-713-1209,7,8,LORAZEPAM,UNCODED,,UNCODED,0.500,mg,PRN,ORAL,1,SCREENING 1,-7,5/15/2013 07:00,2013-04-26,2013-05-25,5,10
CDISCPILOT01,CM,01-713-1209,6,3,QUESTRAN,UNCODED,PROPHYLAXIS OR NON-THERAPEUTIC USE,UNCODED,0.500,,TID,ORAL,1,SCREENING 1,-7,5/15/2013 07:00,2012-10-31,,5,10
CDISCPILOT01,CM,01-713-1269,3,3,VITAMIN E,UNCODED,PROPHYLAXIS OR NON-THERAPEUTIC USE,UNCODED,1000.000,IU,BID,ORAL,1,SCREENING 1,-7,1/13/2014 10:00,2013-11-02,,5,10
CDISCPILOT01,CM,01-714-1068,2,1,CALCIUM,CALCIUM,,ALIMENTARY TRACT AND METABOLISM,500.000,mg,TID,ORAL,1,SCREENING 1,-7,7/30/2013 07:00,2012-09-25,,5,10
CDISCPILOT01,CM,01-715-1397,2,1,GLUCOPHAGE,METFORMIN HYDROCHLORIDE,,ALIMENTARY TRACT AND METABOLISM,850.000,mg,TID,ORAL,1,SCREENING 1,-7,3/20/2013 10:00,2011-10-28,,5,10
CDISCPILOT01,CM,01-716-1026,6,4,MONOPRIL,UNCODED,,UNCODED,20.000,mg,QD,ORAL,1,SCREENING 1,-7,3/23/2014 10:00,2014-02-26,,5,10
CDISCPILOT01,CM,01-716-1071,5,1,CHLORAL HYDRATE,UNCODED,,UNCODED,500.000,mg,PRN,ORAL,1,SCREENING 1,-7,6/2/2013 07:00,2013-05-26,,5,10
CDISCPILOT01,CM,01-716-1157,11,3,CARDURA,DOXAZOSIN MESILATE,,CARDIOVASCULAR SYSTEM,2.000,mg,QD,ORAL,1,SCREENING 1,-7,9/22/2013 07:00,2013-09-21,,5,10
CDISCPILOT01,CM,01-716-1189,1,1,AXID,NIZATIDINE,,ALIMENTARY TRACT AND METABOLISM,75.000,mg,BID,ORAL,1,SCREENING 1,-7,10/6/2012 07:00,2012-09-29,,5,10
CDISCPILOT01,CM,01-716-1189,2,2,MILK OF MAGNESIA,UNCODED,PROPHYLAXIS OR NON-THERAPEUTIC USE,UNCODED,1.000,Tbsp,QD,ORAL,1,SCREENING 1,-7,10/6/2012 07:00,2012-09-29,,5,10
CDISCPILOT01,CM,01-717-1004,4,2,FOSAMAX,UNCODED,,UNCODED,10.000,mg,QD,ORAL,1,SCREENING 1,-7,12/31/2013 10:00,2013-01-26,,5,10
CDISCPILOT01,CM,01-717-1004,5,13,FUROSEMIDE,UNCODED,,UNCODED,40.000,mg,QD,ORAL,1,SCREENING 1,-7,12/31/2013 10:00,2013-08-20,2014-04-24,5,10
CDISCPILOT01,CM,01-717-1109,1,1,SYNTHROID,UNCODED,,UNCODED,0.100,mg,QD,ORAL,1,SCREENING 1,-7,1/19/2014 10:00,2012-01-13,,5,10
CDISCPILOT01,CM,01-718-1150,3,3,AMOXICILLIN,UNCODED,,UNCODED,250.000,mg,TID,ORAL,1,SCREENING 1,-7,1/11/2013 10:00,2013-01-02,2013-01-12,5,10
CDISCPILOT01,CM,01-718-1150,2,1,MULTIVITAMIN,UNCODED,PROPHYLAXIS OR NON-THERAPEUTIC USE,UNCODED,1.000,TABLET,QD,ORAL,1,SCREENING 1,-7,1/11/2013 10:00,2012-10-27,,5,10
CDISCPILOT01,CM,01-718-1150,4,4,ROBITUSSIN-DM,UNCODED,,UNCODED,2.000,tsp,PRN,ORAL,1,SCREENING 1,-7,1/11/2013 10:00,2013-01-02,2013-01-12,5,10
CDISCPILOT01,CM,01-718-1150,1,2,VITAMIN B12,UNCODED,,UNCODED,1000.000,mg,Q4S,INTRAMUSCULAR,1,SCREENING 1,-7,1/11/2013 10:00,2012-06-27,,5,10
CDISCPILOT01,CM,01-718-1170,3,1,ATIVAN,UNCODED,PRIMARY STUDY CONDITION,UNCODED,0.500,mg,ONCE,ORAL,1,SCREENING 1,-7,8/24/2013 07:00,2013-08-02,2013-08-02,5,10
CDISCPILOT01,CM,01-718-1170,1,2,MULTIVITAMIN,UNCODED,PROPHYLAXIS OR NON-THERAPEUTIC USE,UNCODED,1.000,TABLET,QD,ORAL,1,SCREENING 1,-7,8/24/2013 07:00,2012-09-28,,5,10
CDISCPILOT01,CM,01-718-1170,2,3,TYLENOL,UNCODED,PROPHYLAXIS OR NON-THERAPEUTIC USE,UNCODED,325.000,mg,QD,ORAL,1,SCREENING 1,-7,8/24/2013 07:00,2012-09-28,,5,10
CDISCPILOT01,CM,01-701-1111,12,1,KEFLEX,UNCODED,,UNCODED,500.000,mg,QID,ORAL,2,SCREENING 2,-1,9/4/2012 07:00,2012-07-08,,5,10
CDISCPILOT01,CM,01-701-1118,3,1,ASPIRIN,ACETYLSALICYLIC ACID,PROPHYLAXIS OR NON-THERAPEUTIC USE,NERVOUS SYSTEM,325.000,mg,PRN,ORAL,2,SCREENING 2,-1,3/10/2014 10:00,2000-12-10,,5,10
CDISCPILOT01,CM,01-701-1118,4,2,MULTIVITAMIN,UNCODED,PROPHYLAXIS OR NON-THERAPEUTIC USE,UNCODED,1.000,TABLET,QD,ORAL,2,SCREENING 2,-1,3/10/2014 10:00,2012-01-21,,5,10
CDISCPILOT01,CM,01-701-1181,10,5,VITAMIN E,UNCODED,PROPHYLAXIS OR NON-THERAPEUTIC USE,UNCODED,1.000,TABLET,QD,ORAL,2,SCREENING 2,-1,12/2/2013 10:00,2012-06-04,,5,10
CDISCPILOT01,CM,01-701-1192,4,2,MULTIVITAMINS,UNCODED,PROPHYLAXIS OR NON-THERAPEUTIC USE,UNCODED,2.000,TABLET,TID,ORAL,2,SCREENING 2,-1,7/19/2012 07:00,2011-05-19,,5,10
CDISCPILOT01,CM,01-701-1287,4,2,PREMARIN,ESTROGENS CONJUGATED,PROPHYLAXIS OR NON-THERAPEUTIC USE,GENITO URINARY SYSTEM AND SEX HORMONES,0.625,mg,QD,ORAL,2,SCREENING 2,-1,1/22/2014 10:00,2013-06-28,,5,10
CDISCPILOT01,CM,01-701-1302,8,3,METAMUCIL,UNCODED,,UNCODED,2.000,Tbsp,QD,ORAL,2,SCREENING 2,-1,8/26/2013 07:00,2012-03-01,,5,10
CDISCPILOT01,CM,01-701-1392,8,4,ZESTRIL,UNCODED,,UNCODED,5.000,mg,QD,ORAL,2,SCREENING 2,-1,10/25/2012 07:00,2011-03-17,,5,10
CDISCPILOT01,CM,01-703-1042,6,1,NORVASC,AMLODIPINE,,CARDIOVASCULAR SYSTEM,5.000,mg,QD,ORAL,2,SCREENING 2,-1,2/27/2013 10:00,2013-01-27,,5,10
CDISCPILOT01,CM,01-703-1076,6,3,LOPID,UNCODED,,UNCODED,600.000,mg,BID,ORAL,2,SCREENING 2,-1,10/22/2013 07:00,2013-08-31,2013-11-27,5,10
CDISCPILOT01,CM,01-703-1076,5,2,TIMOPTIC,UNCODED,,UNCODED,1.000,gtt,EVERY NIGHT,OPHTHALMIC,2,SCREENING 2,-1,10/22/2013 07:00,2012-11-13,,5,10
CDISCPILOT01,CM,01-703-1100,6,3,VITAMIN B12,UNCODED,PROPHYLAXIS OR NON-THERAPEUTIC USE,UNCODED,15.000,ug,PRN,ORAL,2,SCREENING 2,-1,3/11/2013 10:00,2012-01-19,,5,10
CDISCPILOT01,CM,01-703-1119,5,1,NORVASC,AMLODIPINE,,CARDIOVASCULAR SYSTEM,5.000,mg,QD,ORAL,2,SCREENING 2,-1,2/13/2013 10:00,2013-01-20,,5,10
CDISCPILOT01,CM,01-703-1119,4,2,PREMARIN,ESTROGENS CONJUGATED,PROPHYLAXIS OR NON-THERAPEUTIC USE,GENITO URINARY SYSTEM AND SEX HORMONES,0.300,mg,QD,ORAL,2,SCREENING 2,-1,2/13/2013 10:00,2012-01-13,,5,10
CDISCPILOT01,CM,01-703-1119,6,3,ZOCOR,UNCODED,,UNCODED,10.000,mg,QD,ORAL,2,SCREENING 2,-1,2/13/2013 10:00,2013-01-20,,5,10
CDISCPILOT01,CM,01-703-1379,6,2,MONOPRIL,UNCODED,,UNCODED,10.000,mg,QD,ORAL,2,SCREENING 2,-1,9/19/2013 07:00,2013-06-07,,5,10
CDISCPILOT01,CM,01-704-1008,6,3,SYNTHROID,UNCODED,,UNCODED,0.075,mg,QD,ORAL,2,SCREENING 2,-1,1/10/2013 10:00,2012-12-09,2013-02-07,5,10
CDISCPILOT01,CM,01-704-1009,8,3,MULTIVITAMIN,UNCODED,PROPHYLAXIS OR NON-THERAPEUTIC USE,UNCODED,1.000,TABLET,QD,ORAL,2,SCREENING 2,-1,8/23/2013 07:00,2013-08-08,,5,10
CDISCPILOT01,CM,01-704-1093,6,3,AXID,NIZATIDINE,,ALIMENTARY TRACT AND METABOLISM,150.000,mg,QD,ORAL,2,SCREENING 2,-1,3/13/2013 10:00,2013-02-15,2013-03-09,5,10
CDISCPILOT01,CM,01-704-1093,5,1,HYTRIN,UNCODED,,UNCODED,2.000,mg,QD,ORAL,2,SCREENING 2,-1,3/13/2013 10:00,2013-02-02,,5,10
CDISCPILOT01,CM,01-704-1127,2,1,MULTIVITAMIN,UNCODED,PROPHYLAXIS OR NON-THERAPEUTIC USE,UNCODED,1.000,TABLET,QD,ORAL,2,SCREENING 2,-1,9/29/2013 07:00,2010-08-11,,5,10
CDISCPILOT01,CM,01-704-1266,8,4,ZESTRIL,UNCODED,,UNCODED,5.000,mg,QD,ORAL,2,SCREENING 2,-1,10/10/2013 07:00,2013-06-20,,5,10
CDISCPILOT01,CM,01-704-1323,21,10,CLARITIN,UNCODED,,UNCODED,10.000,mg,QD,ORAL,2,SCREENING 2,-1,7/6/2013 07:00,2013-06-23,,5,10
CDISCPILOT01,CM,01-704-1323,20,4,FOSAMAX,UNCODED,,UNCODED,10.000,mg,QD,ORAL,2,SCREENING 2,-1,7/6/2013 07:00,2013-05-09,,5,10
CDISCPILOT01,CM,01-704-1332,4,2,AMOXICILLIN,UNCODED,,UNCODED,500.000,mg,QD,ORAL,2,SCREENING 2,-1,12/6/2013 10:00,2013-11-22,2013-11-25,5,10
CDISCPILOT01,CM,01-704-1435,11,2,BENZALKONIUM CHLORIDE,UNCODED,,UNCODED,1.000,,QD,OPHTHALMIC,2,SCREENING 2,-1,11/14/2012 10:00,2012-08-08,,5,10
CDISCPILOT01,CM,01-704-1435,14,7,XANAX,ALPRAZOLAM,,NERVOUS SYSTEM,0.500,TABLET,QD,ORAL,2,SCREENING 2,-1,11/14/2012 10:00,2012-11-01,2012-11-01,5,10
CDISCPILOT01,CM,01-707-1037,13,2,COZAAR,LOSARTAN POTASSIUM,,CARDIOVASCULAR SYSTEM,50.000,mg,QD,ORAL,2,SCREENING 2,-1,12/17/2013 10:00,2013-11-19,,5,10
CDISCPILOT01,CM,01-707-1037,12,6,SYNTHROID,UNCODED,,UNCODED,0.500,mg,QD,ORAL,2,SCREENING 2,-1,12/17/2013 10:00,2013-08-24,,5,10
CDISCPILOT01,CM,01-707-1037,14,7,VASOTEC,UNCODED,,UNCODED,5.000,mg,QD,ORAL,2,SCREENING 2,-1,12/17/2013 10:00,2013-11-19,,5,10
CDISCPILOT01,CM,01-708-1084,5,3,TIMOPTIC,UNCODED,,UNCODED,1.000,gtt,QD,OPHTHALMIC,2,SCREENING 2,-1,5/5/2013 07:00,2013-04-26,,5,10
CDISCPILOT01,CM,01-708-1178,4,1,MAXZIDE,UNCODED,,UNCODED,1.000,TABLET,QD,ORAL,2,SCREENING 2,-1,12/18/2013 10:00,2013-12-13,,5,10
CDISCPILOT01,CM,01-708-1216,5,2,NORVASC,AMLODIPINE,,CARDIOVASCULAR SYSTEM,5.000,mg,QD,ORAL,2,SCREENING 2,-1,10/18/2012 07:00,2012-10-10,,5,10
CDISCPILOT01,CM,01-708-1336,4,4,PRINIVIL,UNCODED,,UNCODED,10.000,mg,QD,ORAL,2,SCREENING 2,-1,12/4/2012 10:00,2011-07-15,2013-06-05,5,10
CDISCPILOT01,CM,01-709-1001,7,4,ZINC,UNCODED,PROPHYLAXIS OR NON-THERAPEUTIC USE,UNCODED,1.000,TABLET,QD,ORAL,2,SCREENING 2,-1,10/5/2013 07:00,2012-09-05,,5,10
CDISCPILOT01,CM,01-709-1001,12,5,ZOCOR,UNCODED,,UNCODED,10.000,mg,QD,ORAL,2,SCREENING 2,-1,10/5/2013 07:00,2013-07-08,,5,10
CDISCPILOT01,CM,01-709-1007,8,4,ATIVAN,UNCODED,PRIMARY STUDY CONDITION,UNCODED,1.000,mg,QD,ORAL,2,SCREENING 2,-1,7/28/2012 07:00,2012-07-21,2012-07-21,5,10
CDISCPILOT01,CM,01-709-1020,4,1,ADVIL,UNCODED,PROPHYLAXIS OR NON-THERAPEUTIC USE,UNCODED,1.000,TABLET,PRN,ORAL,2,SCREENING 2,-1,11/28/2012 10:00,2012-11-14,,5,10
CDISCPILOT01,CM,01-709-1088,4,2,ATIVAN,UNCODED,PRIMARY STUDY CONDITION,UNCODED,1.000,mg,QD,ORAL,2,SCREENING 2,-1,4/9/2014 07:00,2014-03-30,2014-03-30,5,10
CDISCPILOT01,CM,01-709-1217,8,4,GINKGO BILOBA,UNCODED,PROPHYLAXIS OR NON-THERAPEUTIC USE,UNCODED,1.000,TABLET,QD,ORAL,2,SCREENING 2,-1,3/1/2013 10:00,2013-01-15,2013-02-17,5,10
CDISCPILOT01,CM,01-709-1312,8,2,NORVASC,AMLODIPINE,,CARDIOVASCULAR SYSTEM,5.000,mg,QD,ORAL,2,SCREENING 2,-1,4/17/2014 07:00,2014-03-24,,5,10
CDISCPILOT01,CM,01-709-1329,17,9,ATIVAN,UNCODED,PRIMARY STUDY CONDITION,UNCODED,0.500,mg,PRN,ORAL,2,SCREENING 2,-1,8/12/2013 07:00,2013-08-01,2013-08-14,5,10
CDISCPILOT01,CM,01-709-1329,18,11,CHLORAL HYDRATE,UNCODED,PRIMARY STUDY CONDITION,UNCODED,500.000,mg,PRN,ORAL,2,SCREENING 2,-1,8/12/2013 07:00,2013-08-01,2013-08-14,5,10
CDISCPILOT01,CM,01-710-1060,8,3,PREDNISONE,UNCODED,,UNCODED,1.000,%,QD,OPHTHALMIC,2,SCREENING 2,-1,12/29/2012 10:00,2012-04-18,,5,10
CDISCPILOT01,CM,01-711-1012,4,2,DYAZIDE,UNCODED,,UNCODED,37.500,mg,QD,ORAL,2,SCREENING 2,-1,3/31/2013 09:00,2013-03-02,,5,10
CDISCPILOT01,CM,01-711-1036,2,4,ALBUTEROL,UNCODED,,UNCODED,2.000,PUFF,QID,RESPIRATORY (INHALATION),2,SCREENING 2,-1,7/26/2012 07:00,2011-10-12,2012-10-22,5,10
CDISCPILOT01,CM,01-711-1143,4,4,SYNTHROID,UNCODED,,UNCODED,0.150,mg,QD,ORAL,2,SCREENING 2,-1,3/31/2013 09:00,2009-03-03,2013-05-20,5,10
CDISCPILOT01,CM,01-711-1433,6,5,MONOPRIL,UNCODED,,UNCODED,10.000,mg,BID,ORAL,2,SCREENING 2,-1,1/24/2013 10:00,2013-01-14,2013-02-04,5,10
CDISCPILOT01,CM,01-711-1433,5,2,SURFAK,UNCODED,,UNCODED,240.000,mg,QD,ORAL,2,SCREENING 2,-1,1/24/2013 10:00,2012-04-30,,5,10
CDISCPILOT01,CM,01-713-1043,4,2,IBUPROFEN,UNCODED,PROPHYLAXIS OR NON-THERAPEUTIC USE,UNCODED,400.000,mg,QD,ORAL,2,SCREENING 2,-1,9/12/2013 07:00,2013-06-21,,5,10
CDISCPILOT01,CM,01-713-1073,10,1,ASPIRIN (E.C.),UNCODED,,UNCODED,325.000,mg,QD,ORAL,2,SCREENING 2,-1,3/28/2014 10:00,2014-01-27,,5,10
CDISCPILOT01,CM,01-713-1073,9,5,VITAMIN B12,UNCODED,,UNCODED,1000.000,ug,QM,INTRAMUSCULAR,2,SCREENING 2,-1,3/28/2014 10:00,2013-07-20,,5,10
CDISCPILOT01,CM,01-713-1209,16,1,AXID,NIZATIDINE,,ALIMENTARY TRACT AND METABOLISM,150.000,mg,QD,ORAL,2,SCREENING 2,-1,5/24/2013 07:00,2013-05-09,,5,10
CDISCPILOT01,CM,01-713-1209,15,8,LORAZEPAM,UNCODED,,UNCODED,0.500,mg,PRN,ORAL,2,SCREENING 2,-1,5/24/2013 07:00,2013-04-26,2013-05-25,5,10
CDISCPILOT01,CM,01-713-1209,14,3,QUESTRAN,UNCODED,PROPHYLAXIS OR NON-THERAPEUTIC USE,UNCODED,0.500,,TID,ORAL,2,SCREENING 2,-1,5/24/2013 07:00,2012-10-31,,5,10
CDISCPILOT01,CM,01-713-1269,6,3,VITAMIN E,UNCODED,PROPHYLAXIS OR NON-THERAPEUTIC USE,UNCODED,1000.000,IU,BID,ORAL,2,SCREENING 2,-1,1/25/2014 10:00,2013-11-02,,5,10
CDISCPILOT01,CM,01-714-1068,6,1,CALCIUM,CALCIUM,,ALIMENTARY TRACT AND METABOLISM,500.000,mg,TID,ORAL,2,SCREENING 2,-1,8/5/2013 07:00,2012-09-25,,5,10
CDISCPILOT01,CM,01-715-1397,5,1,GLUCOPHAGE,METFORMIN HYDROCHLORIDE,,ALIMENTARY TRACT AND METABOLISM,850.000,mg,TID,ORAL,2,SCREENING 2,-1,3/31/2013 09:00,2011-10-28,,5,10
CDISCPILOT01,CM,01-716-1026,11,4,MONOPRIL,UNCODED,,UNCODED,20.000,mg,QD,ORAL,2,SCREENING 2,-1,3/27/2014 10:00,2014-02-26,,5,10
CDISCPILOT01,CM,01-716-1071,10,1,CHLORAL HYDRATE,UNCODED,,UNCODED,500.000,mg,PRN,ORAL,2,SCREENING 2,-1,6/5/2013 07:00,2013-05-26,,5,10
CDISCPILOT01,CM,01-716-1157,22,3,CARDURA,DOXAZOSIN MESILATE,,CARDIOVASCULAR SYSTEM,2.000,mg,QD,ORAL,2,SCREENING 2,-1,9/29/2013 07:00,2013-09-21,,5,10
CDISCPILOT01,CM,01-716-1189,3,1,AXID,NIZATIDINE,,ALIMENTARY TRACT AND METABOLISM,75.000,mg,BID,ORAL,2,SCREENING 2,-1,10/6/2012 07:00,2012-09-29,,5,10
CDISCPILOT01,CM,01-716-1189,4,2,MILK OF MAGNESIA,UNCODED,PROPHYLAXIS OR NON-THERAPEUTIC USE,UNCODED,1.000,Tbsp,QD,ORAL,2,SCREENING 2,-1,10/6/2012 07:00,2012-09-29,,5,10
CDISCPILOT01,CM,01-717-1004,11,4,DEBROX,UNCODED,,UNCODED,5.000,gtt,BID,AURICULAR (OTIC),2,SCREENING 2,-1,1/11/2014 10:00,2014-01-04,2014-01-07,5,10
CDISCPILOT01,CM,01-717-1004,9,2,FOSAMAX,UNCODED,,UNCODED,10.000,mg,QD,ORAL,2,SCREENING 2,-1,1/11/2014 10:00,2013-01-26,,5,10
CDISCPILOT01,CM,01-717-1004,10,13,FUROSEMIDE,UNCODED,,UNCODED,40.000,mg,QD,ORAL,2,SCREENING 2,-1,1/11/2014 10:00,2013-08-20,2014-04-24,5,10
CDISCPILOT01,CM,01-717-1109,3,1,SYNTHROID,UNCODED,,UNCODED,0.100,mg,QD,ORAL,2,SCREENING 2,-1,1/24/2014 10:00,2012-01-13,,5,10
CDISCPILOT01,CM,01-718-1150,7,3,AMOXICILLIN,UNCODED,,UNCODED,250.000,mg,TID,ORAL,2,SCREENING 2,-1,1/16/2013 10:00,2013-01-02,2013-01-12,5,10
CDISCPILOT01,CM,01-718-1150,6,1,MULTIVITAMIN,UNCODED,PROPHYLAXIS OR NON-THERAPEUTIC USE,UNCODED,1.000,TABLET,QD,ORAL,2,SCREENING 2,-1,1/16/2013 10:00,2012-10-27,,5,10
CDISCPILOT01,CM,01-718-1150,8,4,ROBITUSSIN-DM,UNCODED,,UNCODED,2.000,tsp,PRN,ORAL,2,SCREENING 2,-1,1/16/2013 10:00,2013-01-02,2013-01-12,5,10
CDISCPILOT01,CM,01-718-1150,5,2,VITAMIN B12,UNCODED,,UNCODED,1000.000,mg,Q4S,INTRAMUSCULAR,2,SCREENING 2,-1,1/16/2013 10:00,2012-06-27,,5,10
CDISCPILOT01,CM,01-718-1170,4,2,MULTIVITAMIN,UNCODED,PROPHYLAXIS OR NON-THERAPEUTIC USE,UNCODED,1.000,TABLET,QD,ORAL,2,SCREENING 2,-1,9/13/2013 07:00,2012-09-28,,5,10
CDISCPILOT01,CM,01-718-1170,5,3,TYLENOL,UNCODED,PROPHYLAXIS OR NON-THERAPEUTIC USE,UNCODED,325.000,mg,QD,ORAL,2,SCREENING 2,-1,9/13/2013 07:00,2012-09-28,,5,10
CDISCPILOT01,CM,01-701-1118,17,1,ASPIRIN,ACETYLSALICYLIC ACID,PROPHYLAXIS OR NON-THERAPEUTIC USE,NERVOUS SYSTEM,325.000,mg,PRN,ORAL,9,WEEK 12,84,6/4/2014 07:00,2000-12-10,,5,10
CDISCPILOT01,CM,01-701-1118,18,2,MULTIVITAMIN,UNCODED,PROPHYLAXIS OR NON-THERAPEUTIC USE,UNCODED,1.000,TABLET,QD,ORAL,9,WEEK 12,84,6/4/2014 07:00,2012-01-21,,5,10
CDISCPILOT01,CM,01-701-1192,21,2,MULTIVITAMINS,UNCODED,PROPHYLAXIS OR NON-THERAPEUTIC USE,UNCODED,2.000,TABLET,TID,ORAL,9,WEEK 12,84,10/13/2012 07:00,2011-05-19,,5,10
CDISCPILOT01,CM,01-701-1287,19,2,PREMARIN,ESTROGENS CONJUGATED,PROPHYLAXIS OR NON-THERAPEUTIC USE,GENITO URINARY SYSTEM AND SEX HORMONES,0.625,mg,QD,ORAL,9,WEEK 12,84,4/16/2014 07:00,2013-06-28,,5,10
CDISCPILOT01,CM,01-701-1302,44,3,METAMUCIL,UNCODED,,UNCODED,2.000,Tbsp,QD,ORAL,9,WEEK 12,84,11/4/2013 10:00,2012-03-01,,5,10
CDISCPILOT01,CM,01-701-1392,36,4,ZESTRIL,UNCODED,,UNCODED,5.000,mg,QD,ORAL,9,WEEK 12,84,1/19/2013 10:00,2011-03-17,,5,10
CDISCPILOT01,CM,01-703-1042,28,1,NORVASC,AMLODIPINE,,CARDIOVASCULAR SYSTEM,5.000,mg,QD,ORAL,9,WEEK 12,84,5/24/2013 07:00,2013-01-27,,5,10
CDISCPILOT01,CM,01-703-1076,29,2,TIMOPTIC,UNCODED,,UNCODED,1.000,gtt,EVERY NIGHT,OPHTHALMIC,9,WEEK 12,84,12/23/2013 10:00,2012-11-13,,5,10
CDISCPILOT01,CM,01-703-1100,31,3,VITAMIN B12,UNCODED,PROPHYLAXIS OR NON-THERAPEUTIC USE,UNCODED,15.000,ug,PRN,ORAL,9,WEEK 12,84,6/4/2013 07:00,2012-01-19,,5,10
CDISCPILOT01,CM,01-703-1119,28,1,NORVASC,AMLODIPINE,,CARDIOVASCULAR SYSTEM,5.000,mg,QD,ORAL,9,WEEK 12,84,5/16/2013 07:00,2013-01-20,,5,10
CDISCPILOT01,CM,01-703-1119,27,2,PREMARIN,ESTROGENS CONJUGATED,PROPHYLAXIS OR NON-THERAPEUTIC USE,GENITO URINARY SYSTEM AND SEX HORMONES,0.300,mg,QD,ORAL,9,WEEK 12,84,5/16/2013 07:00,2012-01-13,,5,10
CDISCPILOT01,CM,01-703-1119,29,3,ZOCOR,UNCODED,,UNCODED,10.000,mg,QD,ORAL,9,WEEK 12,84,5/16/2013 07:00,2013-01-20,,5,10
CDISCPILOT01,CM,01-703-1379,27,2,MONOPRIL,UNCODED,,UNCODED,10.000,mg,QD,ORAL,9,WEEK 12,84,12/14/2013 10:00,2013-06-07,,5,10
CDISCPILOT01,CM,01-704-1093,22,1,HYTRIN,UNCODED,,UNCODED,2.000,mg,QD,ORAL,9,WEEK 12,84,6/6/2013 07:00,2013-02-02,,5,10
CDISCPILOT01,CM,01-704-1127,9,1,MULTIVITAMIN,UNCODED,PROPHYLAXIS OR NON-THERAPEUTIC USE,UNCODED,1.000,TABLET,QD,ORAL,9,WEEK 12,84,12/24/2013 10:00,2010-08-11,,5,10
CDISCPILOT01,CM,01-708-1084,26,3,TIMOPTIC,UNCODED,,UNCODED,1.000,gtt,QD,OPHTHALMIC,9,WEEK 12,84,7/31/2013 07:00,2013-04-26,,5,10
CDISCPILOT01,CM,01-708-1178,20,1,MAXZIDE,UNCODED,,UNCODED,1.000,TABLET,QD,ORAL,9,WEEK 12,84,4/5/2014 07:00,2013-12-13,,5,10
CDISCPILOT01,CM,01-708-1336,18,4,PRINIVIL,UNCODED,,UNCODED,10.000,mg,QD,ORAL,9,WEEK 12,84,2/26/2013 10:00,2011-07-15,2013-06-05,5,10
CDISCPILOT01,CM,01-709-1001,52,4,ZINC,UNCODED,PROPHYLAXIS OR NON-THERAPEUTIC USE,UNCODED,1.000,TABLET,QD,ORAL,9,WEEK 12,84,12/30/2013 10:00,2012-09-05,,5,10
CDISCPILOT01,CM,01-709-1001,56,5,ZOCOR,UNCODED,,UNCODED,10.000,mg,QD,ORAL,9,WEEK 12,84,12/30/2013 10:00,2013-07-08,,5,10
CDISCPILOT01,CM,01-709-1020,21,1,ADVIL,UNCODED,PROPHYLAXIS OR NON-THERAPEUTIC USE,UNCODED,1.000,TABLET,PRN,ORAL,9,WEEK 12,84,2/22/2013 10:00,2012-11-14,,5,10
CDISCPILOT01,CM,01-709-1312,36,2,NORVASC,AMLODIPINE,,CARDIOVASCULAR SYSTEM,5.000,mg,QD,ORAL,9,WEEK 12,84,7/12/2014 07:00,2014-03-24,,5,10
CDISCPILOT01,CM,01-710-1060,41,3,PREDNISONE,UNCODED,,UNCODED,1.000,%,QD,OPHTHALMIC,9,WEEK 12,84,3/26/2013 10:00,2012-04-18,,5,10
CDISCPILOT01,CM,01-711-1036,19,4,ALBUTEROL,UNCODED,,UNCODED,2.000,PUFF,QID,RESPIRATORY (INHALATION),9,WEEK 12,84,10/20/2012 07:00,2011-10-12,2012-10-22,5,10
CDISCPILOT01,CM,01-713-1043,21,2,IBUPROFEN,UNCODED,PROPHYLAXIS OR NON-THERAPEUTIC USE,UNCODED,400.000,mg,QD,ORAL,9,WEEK 12,84,12/5/2013 10:00,2013-06-21,,5,10
CDISCPILOT01,CM,01-713-1073,45,1,ASPIRIN (E.C.),UNCODED,,UNCODED,325.000,mg,QD,ORAL,9,WEEK 12,84,6/21/2014 07:00,2014-01-27,,5,10
CDISCPILOT01,CM,01-713-1073,44,5,VITAMIN B12,UNCODED,,UNCODED,1000.000,ug,QM,INTRAMUSCULAR,9,WEEK 12,84,6/21/2014 07:00,2013-07-20,,5,10
CDISCPILOT01,CM,01-713-1209,80,1,AXID,NIZATIDINE,,ALIMENTARY TRACT AND METABOLISM,150.000,mg,QD,ORAL,9,WEEK 12,84,8/18/2013 07:00,2013-05-09,,5,10
CDISCPILOT01,CM,01-713-1209,79,3,QUESTRAN,UNCODED,PROPHYLAXIS OR NON-THERAPEUTIC USE,UNCODED,0.500,,TID,ORAL,9,WEEK 12,84,8/18/2013 07:00,2012-10-31,,5,10
CDISCPILOT01,CM,01-713-1269,32,3,VITAMIN E,UNCODED,PROPHYLAXIS OR NON-THERAPEUTIC USE,UNCODED,1000.000,IU,BID,ORAL,9,WEEK 12,84,4/19/2014 07:00,2013-11-02,,5,10
CDISCPILOT01,CM,01-714-1068,35,1,CALCIUM,CALCIUM,,ALIMENTARY TRACT AND METABOLISM,500.000,mg,TID,ORAL,9,WEEK 12,84,10/15/2013 07:00,2012-09-25,,5,10
CDISCPILOT01,CM,01-715-1397,26,1,GLUCOPHAGE,METFORMIN HYDROCHLORIDE,,ALIMENTARY TRACT AND METABOLISM,850.000,mg,TID,ORAL,9,WEEK 12,84,6/26/2013 07:00,2011-10-28,,5,10
CDISCPILOT01,CM,01-716-1026,46,4,MONOPRIL,UNCODED,,UNCODED,20.000,mg,QD,ORAL,9,WEEK 12,84,6/25/2014 07:00,2014-02-26,,5,10
CDISCPILOT01,CM,01-716-1157,104,3,CARDURA,DOXAZOSIN MESILATE,,CARDIOVASCULAR SYSTEM,2.000,mg,QD,ORAL,9,WEEK 12,84,12/23/2013 10:00,2013-09-21,,5,10
CDISCPILOT01,CM,01-716-1189,17,1,AXID,NIZATIDINE,,ALIMENTARY TRACT AND METABOLISM,75.000,mg,BID,ORAL,9,WEEK 12,84,1/4/2013 10:00,2012-09-29,,5,10
CDISCPILOT01,CM,01-716-1189,18,2,MILK OF MAGNESIA,UNCODED,PROPHYLAXIS OR NON-THERAPEUTIC USE,UNCODED,1.000,Tbsp,QD,ORAL,9,WEEK 12,84,1/4/2013 10:00,2012-09-29,,5,10
CDISCPILOT01,CM,01-717-1004,53,2,FOSAMAX,UNCODED,,UNCODED,10.000,mg,QD,ORAL,9,WEEK 12,84,4/7/2014 07:00,2013-01-26,,5,10
CDISCPILOT01,CM,01-717-1004,54,13,FUROSEMIDE,UNCODED,,UNCODED,40.000,mg,QD,ORAL,9,WEEK 12,84,4/7/2014 07:00,2013-08-20,2014-04-24,5,10
CDISCPILOT01,CM,01-717-1109,19,1,SYNTHROID,UNCODED,,UNCODED,0.100,mg,QD,ORAL,9,WEEK 12,84,4/17/2014 07:00,2012-01-13,,5,10
CDISCPILOT01,CM,01-718-1150,24,1,MULTIVITAMIN,UNCODED,PROPHYLAXIS OR NON-THERAPEUTIC USE,UNCODED,1.000,TABLET,QD,ORAL,9,WEEK 12,84,4/11/2013 07:00,2012-10-27,,5,10
CDISCPILOT01,CM,01-718-1150,23,2,VITAMIN B12,UNCODED,,UNCODED,1000.000,mg,Q4S,INTRAMUSCULAR,9,WEEK 12,84,4/11/2013 07:00,2012-06-27,,5,10
CDISCPILOT01,CM,01-701-1118,19,1,ASPIRIN,ACETYLSALICYLIC ACID,PROPHYLAXIS OR NON-THERAPEUTIC USE,NERVOUS SYSTEM,325.000,mg,PRN,ORAL,10,WEEK 16,112,7/1/2014 07:00,2000-12-10,,5,10
CDISCPILOT01,CM,01-701-1118,20,2,MULTIVITAMIN,UNCODED,PROPHYLAXIS OR NON-THERAPEUTIC USE,UNCODED,1.000,TABLET,QD,ORAL,10,WEEK 16,112,7/1/2014 07:00,2012-01-21,,5,10
CDISCPILOT01,CM,01-701-1192,26,2,MULTIVITAMINS,UNCODED,PROPHYLAXIS OR NON-THERAPEUTIC USE,UNCODED,2.000,TABLET,TID,ORAL,10,WEEK 16,112,11/14/2012 10:00,2011-05-19,,5,10
CDISCPILOT01,CM,01-701-1287,22,2,PREMARIN,ESTROGENS CONJUGATED,PROPHYLAXIS OR NON-THERAPEUTIC USE,GENITO URINARY SYSTEM AND SEX HORMONES,0.625,mg,QD,ORAL,10,WEEK 16,112,5/14/2014 07:00,2013-06-28,,5,10
CDISCPILOT01,CM,01-701-1392,40,4,ZESTRIL,UNCODED,,UNCODED,5.000,mg,QD,ORAL,10,WEEK 16,112,2/16/2013 10:00,2011-03-17,,5,10
CDISCPILOT01,CM,01-703-1042,31,1,NORVASC,AMLODIPINE,,CARDIOVASCULAR SYSTEM,5.000,mg,QD,ORAL,10,WEEK 16,112,6/21/2013 07:00,2013-01-27,,5,10
CDISCPILOT01,CM,01-703-1100,36,3,VITAMIN B12,UNCODED,PROPHYLAXIS OR NON-THERAPEUTIC USE,UNCODED,15.000,ug,PRN,ORAL,10,WEEK 16,112,7/2/2013 07:00,2012-01-19,,5,10
CDISCPILOT01,CM,01-703-1119,33,1,NORVASC,AMLODIPINE,,CARDIOVASCULAR SYSTEM,5.000,mg,QD,ORAL,10,WEEK 16,112,6/12/2013 07:00,2013-01-20,,5,10
CDISCPILOT01,CM,01-703-1119,32,2,PREMARIN,ESTROGENS CONJUGATED,PROPHYLAXIS OR NON-THERAPEUTIC USE,GENITO URINARY SYSTEM AND SEX HORMONES,0.300,mg,QD,ORAL,10,WEEK 16,112,6/12/2013 07:00,2012-01-13,,5,10
CDISCPILOT01,CM,01-703-1119,34,3,ZOCOR,UNCODED,,UNCODED,10.000,mg,QD,ORAL,10,WEEK 16,112,6/12/2013 07:00,2013-01-20,,5,10
CDISCPILOT01,CM,01-703-1379,30,2,MONOPRIL,UNCODED,,UNCODED,10.000,mg,QD,ORAL,10,WEEK 16,112,1/10/2014 10:00,2013-06-07,,5,10
CDISCPILOT01,CM,01-704-1093,26,1,HYTRIN,UNCODED,,UNCODED,2.000,mg,QD,ORAL,10,WEEK 16,112,6/19/2013 07:00,2013-02-02,,5,10
CDISCPILOT01,CM,01-704-1127,10,1,MULTIVITAMIN,UNCODED,PROPHYLAXIS OR NON-THERAPEUTIC USE,UNCODED,1.000,TABLET,QD,ORAL,10,WEEK 16,112,1/20/2014 10:00,2010-08-11,,5,10
CDISCPILOT01,CM,01-708-1084,29,3,TIMOPTIC,UNCODED,,UNCODED,1.000,gtt,QD,OPHTHALMIC,10,WEEK 16,112,8/31/2013 07:00,2013-04-26,,5,10
CDISCPILOT01,CM,01-708-1336,20,4,PRINIVIL,UNCODED,,UNCODED,10.000,mg,QD,ORAL,10,WEEK 16,112,3/27/2013 10:00,2011-07-15,2013-06-05,5,10
CDISCPILOT01,CM,01-709-1001,58,4,ZINC,UNCODED,PROPHYLAXIS OR NON-THERAPEUTIC USE,UNCODED,1.000,TABLET,QD,ORAL,10,WEEK 16,112,1/27/2014 10:00,2012-09-05,,5,10
CDISCPILOT01,CM,01-709-1001,62,5,ZOCOR,UNCODED,,UNCODED,10.000,mg,QD,ORAL,10,WEEK 16,112,1/27/2014 10:00,2013-07-08,,5,10
CDISCPILOT01,CM,01-709-1020,24,1,ADVIL,UNCODED,PROPHYLAXIS OR NON-THERAPEUTIC USE,UNCODED,1.000,TABLET,PRN,ORAL,10,WEEK 16,112,3/23/2013 10:00,2012-11-14,,5,10
CDISCPILOT01,CM,01-709-1312,40,2,NORVASC,AMLODIPINE,,CARDIOVASCULAR SYSTEM,5.000,mg,QD,ORAL,10,WEEK 16,112,8/9/2014 07:00,2014-03-24,,5,10
CDISCPILOT01,CM,01-710-1060,45,3,PREDNISONE,UNCODED,,UNCODED,1.000,%,QD,OPHTHALMIC,10,WEEK 16,112,4/22/2013 07:00,2012-04-18,,5,10
CDISCPILOT01,CM,01-711-1036,21,4,ALBUTEROL,UNCODED,,UNCODED,2.000,PUFF,QID,RESPIRATORY (INHALATION),10,WEEK 16,112,11/16/2012 10:00,2011-10-12,2012-10-22,5,10
CDISCPILOT01,CM,01-713-1043,25,2,IBUPROFEN,UNCODED,PROPHYLAXIS OR NON-THERAPEUTIC USE,UNCODED,400.000,mg,QD,ORAL,10,WEEK 16,112,1/2/2014 10:00,2013-06-21,,5,10
CDISCPILOT01,CM,01-713-1073,50,1,ASPIRIN (E.C.),UNCODED,,UNCODED,325.000,mg,QD,ORAL,10,WEEK 16,112,7/20/2014 07:00,2014-01-27,,5,10
CDISCPILOT01,CM,01-713-1073,49,5,VITAMIN B12,UNCODED,,UNCODED,1000.000,ug,QM,INTRAMUSCULAR,10,WEEK 16,112,7/20/2014 07:00,2013-07-20,,5,10
CDISCPILOT01,CM,01-713-1209,91,1,AXID,NIZATIDINE,,ALIMENTARY TRACT AND METABOLISM,150.000,mg,QD,ORAL,10,WEEK 16,112,9/14/2013 07:00,2013-05-09,,5,10
CDISCPILOT01,CM,01-713-1209,90,3,QUESTRAN,UNCODED,PROPHYLAXIS OR NON-THERAPEUTIC USE,UNCODED,0.500,,TID,ORAL,10,WEEK 16,112,9/14/2013 07:00,2012-10-31,,5,10
CDISCPILOT01,CM,01-713-1269,36,3,VITAMIN E,UNCODED,PROPHYLAXIS OR NON-THERAPEUTIC USE,UNCODED,1000.000,IU,BID,ORAL,10,WEEK 16,112,5/18/2014 07:00,2013-11-02,,5,10
CDISCPILOT01,CM,01-715-1397,29,1,GLUCOPHAGE,METFORMIN HYDROCHLORIDE,,ALIMENTARY TRACT AND METABOLISM,850.000,mg,TID,ORAL,10,WEEK 16,112,7/23/2013 07:00,2011-10-28,,5,10
CDISCPILOT01,CM,01-716-1026,51,4,MONOPRIL,UNCODED,,UNCODED,20.000,mg,QD,ORAL,10,WEEK 16,112,7/30/2014 07:00,2014-02-26,,5,10
CDISCPILOT01,CM,01-716-1157,119,3,CARDURA,DOXAZOSIN MESILATE,,CARDIOVASCULAR SYSTEM,2.000,mg,QD,ORAL,10,WEEK 16,112,1/19/2014 10:00,2013-09-21,,5,10
CDISCPILOT01,CM,01-716-1189,19,1,AXID,NIZATIDINE,,ALIMENTARY TRACT AND METABOLISM,75.000,mg,BID,ORAL,10,WEEK 16,112,2/2/2013 10:00,2012-09-29,,5,10
CDISCPILOT01,CM,01-716-1189,20,2,MILK OF MAGNESIA,UNCODED,PROPHYLAXIS OR NON-THERAPEUTIC USE,UNCODED,1.000,Tbsp,QD,ORAL,10,WEEK 16,112,2/2/2013 10:00,2012-09-29,,5,10
CDISCPILOT01,CM,01-717-1004,59,2,FOSAMAX,UNCODED,,UNCODED,10.000,mg,QD,ORAL,10,WEEK 16,112,5/5/2014 07:00,2013-01-26,,5,10
CDISCPILOT01,CM,01-717-1004,60,13,FUROSEMIDE,UNCODED,,UNCODED,40.000,mg,QD,ORAL,10,WEEK 16,112,5/5/2014 07:00,2013-08-20,2014-04-24,5,10
CDISCPILOT01,CM,01-717-1109,22,1,SYNTHROID,UNCODED,,UNCODED,0.100,mg,QD,ORAL,10,WEEK 16,112,5/18/2014 07:00,2012-01-13,,5,10
CDISCPILOT01,CM,01-718-1150,28,1,MULTIVITAMIN,UNCODED,PROPHYLAXIS OR NON-THERAPEUTIC USE,UNCODED,1.000,TABLET,QD,ORAL,10,WEEK 16,112,5/9/2013 07:00,2012-10-27,,5,10
CDISCPILOT01,CM,01-718-1150,27,2,VITAMIN B12,UNCODED,,UNCODED,1000.000,mg,Q4S,INTRAMUSCULAR,10,WEEK 16,112,5/9/2013 07:00,2012-06-27,,5,10
CDISCPILOT01,CM,01-701-1111,25,1,KEFLEX,UNCODED,,UNCODED,500.000,mg,QID,ORAL,4,WEEK 2,14,9/16/2012 07:00,2012-07-08,,5,10
CDISCPILOT01,CM,01-701-1118,7,1,ASPIRIN,ACETYLSALICYLIC ACID,PROPHYLAXIS OR NON-THERAPEUTIC USE,NERVOUS SYSTEM,325.000,mg,PRN,ORAL,4,WEEK 2,14,3/26/2014 10:00,2000-12-10,,5,10
CDISCPILOT01,CM,01-701-1118,8,2,MULTIVITAMIN,UNCODED,PROPHYLAXIS OR NON-THERAPEUTIC USE,UNCODED,1.000,TABLET,QD,ORAL,4,WEEK 2,14,3/26/2014 10:00,2012-01-21,,5,10
CDISCPILOT01,CM,01-701-1181,20,5,VITAMIN E,UNCODED,PROPHYLAXIS OR NON-THERAPEUTIC USE,UNCODED,1.000,TABLET,QD,ORAL,4,WEEK 2,14,12/11/2013 10:00,2012-06-04,,5,10
CDISCPILOT01,CM,01-701-1192,8,2,MULTIVITAMINS,UNCODED,PROPHYLAXIS OR NON-THERAPEUTIC USE,UNCODED,2.000,TABLET,TID,ORAL,4,WEEK 2,14,8/6/2012 07:00,2011-05-19,,5,10
CDISCPILOT01,CM,01-701-1287,8,2,PREMARIN,ESTROGENS CONJUGATED,PROPHYLAXIS OR NON-THERAPEUTIC USE,GENITO URINARY SYSTEM AND SEX HORMONES,0.625,mg,QD,ORAL,4,WEEK 2,14,2/10/2014 10:00,2013-06-28,,5,10
CDISCPILOT01,CM,01-701-1302,16,3,METAMUCIL,UNCODED,,UNCODED,2.000,Tbsp,QD,ORAL,4,WEEK 2,14,9/14/2013 07:00,2012-03-01,,5,10
CDISCPILOT01,CM,01-701-1392,16,4,ZESTRIL,UNCODED,,UNCODED,5.000,mg,QD,ORAL,4,WEEK 2,14,11/10/2012 10:00,2011-03-17,,5,10
CDISCPILOT01,CM,01-703-1042,12,1,NORVASC,AMLODIPINE,,CARDIOVASCULAR SYSTEM,5.000,mg,QD,ORAL,4,WEEK 2,14,3/14/2013 10:00,2013-01-27,,5,10
CDISCPILOT01,CM,01-703-1076,12,3,LOPID,UNCODED,,UNCODED,600.000,mg,BID,ORAL,4,WEEK 2,14,11/5/2013 10:00,2013-08-31,2013-11-27,5,10
CDISCPILOT01,CM,01-703-1076,11,2,TIMOPTIC,UNCODED,,UNCODED,1.000,gtt,EVERY NIGHT,OPHTHALMIC,4,WEEK 2,14,11/5/2013 10:00,2012-11-13,,5,10
CDISCPILOT01,CM,01-703-1100,12,3,VITAMIN B12,UNCODED,PROPHYLAXIS OR NON-THERAPEUTIC USE,UNCODED,15.000,ug,PRN,ORAL,4,WEEK 2,14,3/29/2013 10:00,2012-01-19,,5,10
CDISCPILOT01,CM,01-703-1119,11,1,NORVASC,AMLODIPINE,,CARDIOVASCULAR SYSTEM,5.000,mg,QD,ORAL,4,WEEK 2,14,3/9/2013 10:00,2013-01-20,,5,10
CDISCPILOT01,CM,01-703-1119,10,2,PREMARIN,ESTROGENS CONJUGATED,PROPHYLAXIS OR NON-THERAPEUTIC USE,GENITO URINARY SYSTEM AND SEX HORMONES,0.300,mg,QD,ORAL,4,WEEK 2,14,3/9/2013 10:00,2012-01-13,,5,10
CDISCPILOT01,CM,01-703-1119,12,3,ZOCOR,UNCODED,,UNCODED,10.000,mg,QD,ORAL,4,WEEK 2,14,3/9/2013 10:00,2013-01-20,,5,10
CDISCPILOT01,CM,01-703-1379,12,2,MONOPRIL,UNCODED,,UNCODED,10.000,mg,QD,ORAL,4,WEEK 2,14,10/6/2013 07:00,2013-06-07,,5,10
CDISCPILOT01,CM,01-704-1008,12,3,SYNTHROID,UNCODED,,UNCODED,0.075,mg,QD,ORAL,4,WEEK 2,14,1/27/2013 10:00,2012-12-09,2013-02-07,5,10
CDISCPILOT01,CM,01-704-1009,16,3,MULTIVITAMIN,UNCODED,PROPHYLAXIS OR NON-THERAPEUTIC USE,UNCODED,1.000,TABLET,QD,ORAL,4,WEEK 2,14,9/13/2013 07:00,2013-08-08,,5,10
CDISCPILOT01,CM,01-704-1093,10,1,HYTRIN,UNCODED,,UNCODED,2.000,mg,QD,ORAL,4,WEEK 2,14,3/30/2013 10:00,2013-02-02,,5,10
CDISCPILOT01,CM,01-704-1127,4,1,MULTIVITAMIN,UNCODED,PROPHYLAXIS OR NON-THERAPEUTIC USE,UNCODED,1.000,TABLET,QD,ORAL,4,WEEK 2,14,10/15/2013 07:00,2010-08-11,,5,10
CDISCPILOT01,CM,01-704-1266,17,4,ZESTRIL,UNCODED,,UNCODED,5.000,mg,QD,ORAL,4,WEEK 2,14,10/26/2013 07:00,2013-06-20,,5,10
CDISCPILOT01,CM,01-704-1323,41,10,CLARITIN,UNCODED,,UNCODED,10.000,mg,QD,ORAL,4,WEEK 2,14,7/22/2013 07:00,2013-06-23,,5,10
CDISCPILOT01,CM,01-704-1323,40,4,FOSAMAX,UNCODED,,UNCODED,10.000,mg,QD,ORAL,4,WEEK 2,14,7/22/2013 07:00,2013-05-09,,5,10
CDISCPILOT01,CM,01-704-1435,24,2,BENZALKONIUM CHLORIDE,UNCODED,,UNCODED,1.000,,QD,OPHTHALMIC,4,WEEK 2,14,11/30/2012 10:00,2012-08-08,,5,10
CDISCPILOT01,CM,01-707-1037,25,2,COZAAR,LOSARTAN POTASSIUM,,CARDIOVASCULAR SYSTEM,50.000,mg,QD,ORAL,4,WEEK 2,14,1/7/2014 10:00,2013-11-19,,5,10
CDISCPILOT01,CM,01-707-1037,24,6,SYNTHROID,UNCODED,,UNCODED,0.500,mg,QD,ORAL,4,WEEK 2,14,1/7/2014 10:00,2013-08-24,,5,10
CDISCPILOT01,CM,01-707-1037,26,7,VASOTEC,UNCODED,,UNCODED,5.000,mg,QD,ORAL,4,WEEK 2,14,1/7/2014 10:00,2013-11-19,,5,10
CDISCPILOT01,CM,01-708-1084,12,3,TIMOPTIC,UNCODED,,UNCODED,1.000,gtt,QD,OPHTHALMIC,4,WEEK 2,14,5/22/2013 07:00,2013-04-26,,5,10
CDISCPILOT01,CM,01-708-1178,8,1,MAXZIDE,UNCODED,,UNCODED,1.000,TABLET,QD,ORAL,4,WEEK 2,14,1/17/2014 10:00,2013-12-13,,5,10
CDISCPILOT01,CM,01-708-1216,9,2,NORVASC,AMLODIPINE,,CARDIOVASCULAR SYSTEM,5.000,mg,QD,ORAL,4,WEEK 2,14,11/7/2012 10:00,2012-10-10,,5,10
CDISCPILOT01,CM,01-708-1336,8,4,PRINIVIL,UNCODED,,UNCODED,10.000,mg,QD,ORAL,4,WEEK 2,14,12/20/2012 10:00,2011-07-15,2013-06-05,5,10
CDISCPILOT01,CM,01-709-1001,22,4,ZINC,UNCODED,PROPHYLAXIS OR NON-THERAPEUTIC USE,UNCODED,1.000,TABLET,QD,ORAL,4,WEEK 2,14,10/21/2013 07:00,2012-09-05,,5,10
CDISCPILOT01,CM,01-709-1001,26,5,ZOCOR,UNCODED,,UNCODED,10.000,mg,QD,ORAL,4,WEEK 2,14,10/21/2013 07:00,2013-07-08,,5,10
CDISCPILOT01,CM,01-709-1020,8,1,ADVIL,UNCODED,PROPHYLAXIS OR NON-THERAPEUTIC USE,UNCODED,1.000,TABLET,PRN,ORAL,4,WEEK 2,14,12/14/2012 10:00,2012-11-14,,5,10
CDISCPILOT01,CM,01-709-1312,16,2,NORVASC,AMLODIPINE,,CARDIOVASCULAR SYSTEM,5.000,mg,QD,ORAL,4,WEEK 2,14,5/9/2014 07:00,2014-03-24,,5,10
CDISCPILOT01,CM,01-710-1060,16,3,PREDNISONE,UNCODED,,UNCODED,1.000,%,QD,OPHTHALMIC,4,WEEK 2,14,1/14/2013 10:00,2012-04-18,,5,10
CDISCPILOT01,CM,01-711-1012,10,2,DYAZIDE,UNCODED,,UNCODED,37.500,mg,QD,ORAL,4,WEEK 2,14,4/16/2013 07:00,2013-03-02,,5,10
CDISCPILOT01,CM,01-711-1036,5,4,ALBUTEROL,UNCODED,,UNCODED,2.000,PUFF,QID,RESPIRATORY (INHALATION),4,WEEK 2,14,8/11/2012 07:00,2011-10-12,2012-10-22,5,10
CDISCPILOT01,CM,01-711-1143,8,4,SYNTHROID,UNCODED,,UNCODED,0.150,mg,QD,ORAL,4,WEEK 2,14,4/16/2013 07:00,2009-03-03,2013-05-20,5,10
CDISCPILOT01,CM,01-711-1433,12,5,MONOPRIL,UNCODED,,UNCODED,10.000,mg,BID,ORAL,4,WEEK 2,14,2/5/2013 10:00,2013-01-14,2013-02-04,5,10
CDISCPILOT01,CM,01-711-1433,11,2,SURFAK,UNCODED,,UNCODED,240.000,mg,QD,ORAL,4,WEEK 2,14,2/5/2013 10:00,2012-04-30,,5,10
CDISCPILOT01,CM,01-713-1043,8,2,IBUPROFEN,UNCODED,PROPHYLAXIS OR NON-THERAPEUTIC USE,UNCODED,400.000,mg,QD,ORAL,4,WEEK 2,14,9/29/2013 07:00,2013-06-21,,5,10
CDISCPILOT01,CM,01-713-1073,20,1,ASPIRIN (E.C.),UNCODED,,UNCODED,325.000,mg,QD,ORAL,4,WEEK 2,14,4/13/2014 07:00,2014-01-27,,5,10
CDISCPILOT01,CM,01-713-1073,19,5,VITAMIN B12,UNCODED,,UNCODED,1000.000,ug,QM,INTRAMUSCULAR,4,WEEK 2,14,4/13/2014 07:00,2013-07-20,,5,10
CDISCPILOT01,CM,01-713-1209,31,1,AXID,NIZATIDINE,,ALIMENTARY TRACT AND METABOLISM,150.000,mg,QD,ORAL,4,WEEK 2,14,6/13/2013 07:00,2013-05-09,,5,10
CDISCPILOT01,CM,01-713-1209,30,3,QUESTRAN,UNCODED,PROPHYLAXIS OR NON-THERAPEUTIC USE,UNCODED,0.500,,TID,ORAL,4,WEEK 2,14,6/13/2013 07:00,2012-10-31,,5,10
CDISCPILOT01,CM,01-713-1269,12,3,VITAMIN E,UNCODED,PROPHYLAXIS OR NON-THERAPEUTIC USE,UNCODED,1000.000,IU,BID,ORAL,4,WEEK 2,14,2/9/2014 10:00,2013-11-02,,5,10
CDISCPILOT01,CM,01-714-1068,14,1,CALCIUM,CALCIUM,,ALIMENTARY TRACT AND METABOLISM,500.000,mg,TID,ORAL,4,WEEK 2,14,8/21/2013 07:00,2012-09-25,,5,10
CDISCPILOT01,CM,01-715-1397,11,1,GLUCOPHAGE,METFORMIN HYDROCHLORIDE,,ALIMENTARY TRACT AND METABOLISM,850.000,mg,TID,ORAL,4,WEEK 2,14,4/17/2013 07:00,2011-10-28,,5,10
CDISCPILOT01,CM,01-716-1026,21,4,MONOPRIL,UNCODED,,UNCODED,20.000,mg,QD,ORAL,4,WEEK 2,14,4/17/2014 07:00,2014-02-26,,5,10
CDISCPILOT01,CM,01-716-1071,20,1,CHLORAL HYDRATE,UNCODED,,UNCODED,500.000,mg,PRN,ORAL,4,WEEK 2,14,6/21/2013 07:00,2013-05-26,,5,10
CDISCPILOT01,CM,01-716-1157,44,3,CARDURA,DOXAZOSIN MESILATE,,CARDIOVASCULAR SYSTEM,2.000,mg,QD,ORAL,4,WEEK 2,14,10/15/2013 07:00,2013-09-21,,5,10
CDISCPILOT01,CM,01-716-1189,7,1,AXID,NIZATIDINE,,ALIMENTARY TRACT AND METABOLISM,75.000,mg,BID,ORAL,4,WEEK 2,14,10/23/2012 07:00,2012-09-29,,5,10
CDISCPILOT01,CM,01-716-1189,8,2,MILK OF MAGNESIA,UNCODED,PROPHYLAXIS OR NON-THERAPEUTIC USE,UNCODED,1.000,Tbsp,QD,ORAL,4,WEEK 2,14,10/23/2012 07:00,2012-09-29,,5,10
CDISCPILOT01,CM,01-717-1004,20,2,FOSAMAX,UNCODED,,UNCODED,10.000,mg,QD,ORAL,4,WEEK 2,14,1/27/2014 10:00,2013-01-26,,5,10
CDISCPILOT01,CM,01-717-1004,21,13,FUROSEMIDE,UNCODED,,UNCODED,40.000,mg,QD,ORAL,4,WEEK 2,14,1/27/2014 10:00,2013-08-20,2014-04-24,5,10
CDISCPILOT01,CM,01-717-1109,7,1,SYNTHROID,UNCODED,,UNCODED,0.100,mg,QD,ORAL,4,WEEK 2,14,2/9/2014 10:00,2012-01-13,,5,10
CDISCPILOT01,CM,01-718-1150,12,1,MULTIVITAMIN,UNCODED,PROPHYLAXIS OR NON-THERAPEUTIC USE,UNCODED,1.000,TABLET,QD,ORAL,4,WEEK 2,14,2/1/2013 10:00,2012-10-27,,5,10
CDISCPILOT01,CM,01-718-1150,11,2,VITAMIN B12,UNCODED,,UNCODED,1000.000,mg,Q4S,INTRAMUSCULAR,4,WEEK 2,14,2/1/2013 10:00,2012-06-27,,5,10
CDISCPILOT01,CM,01-718-1170,8,2,MULTIVITAMIN,UNCODED,PROPHYLAXIS OR NON-THERAPEUTIC USE,UNCODED,1.000,TABLET,QD,ORAL,4,WEEK 2,14,9/28/2013 07:00,2012-09-28,,5,10
CDISCPILOT01,CM,01-718-1170,9,3,TYLENOL,UNCODED,PROPHYLAXIS OR NON-THERAPEUTIC USE,UNCODED,325.000,mg,QD,ORAL,4,WEEK 2,14,9/28/2013 07:00,2012-09-28,,5,10
CDISCPILOT01,CM,01-701-1118,21,1,ASPIRIN,ACETYLSALICYLIC ACID,PROPHYLAXIS OR NON-THERAPEUTIC USE,NERVOUS SYSTEM,325.000,mg,PRN,ORAL,11,WEEK 20,140,7/29/2014 07:00,2000-12-10,,5,10
CDISCPILOT01,CM,01-701-1118,22,2,MULTIVITAMIN,UNCODED,PROPHYLAXIS OR NON-THERAPEUTIC USE,UNCODED,1.000,TABLET,QD,ORAL,11,WEEK 20,140,7/29/2014 07:00,2012-01-21,,5,10
CDISCPILOT01,CM,01-701-1192,28,2,MULTIVITAMINS,UNCODED,PROPHYLAXIS OR NON-THERAPEUTIC USE,UNCODED,2.000,TABLET,TID,ORAL,11,WEEK 20,140,12/12/2012 10:00,2011-05-19,,5,10
CDISCPILOT01,CM,01-701-1287,26,2,PREMARIN,ESTROGENS CONJUGATED,PROPHYLAXIS OR NON-THERAPEUTIC USE,GENITO URINARY SYSTEM AND SEX HORMONES,0.625,mg,QD,ORAL,11,WEEK 20,140,6/11/2014 07:00,2013-06-28,,5,10
CDISCPILOT01,CM,01-701-1392,44,4,ZESTRIL,UNCODED,,UNCODED,5.000,mg,QD,ORAL,11,WEEK 20,140,3/17/2013 10:00,2011-03-17,,5,10
CDISCPILOT01,CM,01-703-1042,34,1,NORVASC,AMLODIPINE,,CARDIOVASCULAR SYSTEM,5.000,mg,QD,ORAL,11,WEEK 20,140,7/19/2013 07:00,2013-01-27,,5,10
CDISCPILOT01,CM,01-703-1100,40,3,VITAMIN B12,UNCODED,PROPHYLAXIS OR NON-THERAPEUTIC USE,UNCODED,15.000,ug,PRN,ORAL,11,WEEK 20,140,7/30/2013 07:00,2012-01-19,,5,10
CDISCPILOT01,CM,01-703-1379,33,2,MONOPRIL,UNCODED,,UNCODED,10.000,mg,QD,ORAL,11,WEEK 20,140,2/8/2014 10:00,2013-06-07,,5,10
CDISCPILOT01,CM,01-704-1127,11,1,MULTIVITAMIN,UNCODED,PROPHYLAXIS OR NON-THERAPEUTIC USE,UNCODED,1.000,TABLET,QD,ORAL,11,WEEK 20,140,2/16/2014 10:00,2010-08-11,,5,10
CDISCPILOT01,CM,01-708-1084,32,3,TIMOPTIC,UNCODED,,UNCODED,1.000,gtt,QD,OPHTHALMIC,11,WEEK 20,140,9/30/2013 07:00,2013-04-26,,5,10
CDISCPILOT01,CM,01-708-1336,22,4,PRINIVIL,UNCODED,,UNCODED,10.000,mg,QD,ORAL,11,WEEK 20,140,4/22/2013 07:00,2011-07-15,2013-06-05,5,10
CDISCPILOT01,CM,01-709-1001,64,4,ZINC,UNCODED,PROPHYLAXIS OR NON-THERAPEUTIC USE,UNCODED,1.000,TABLET,QD,ORAL,11,WEEK 20,140,2/24/2014 10:00,2012-09-05,,5,10
CDISCPILOT01,CM,01-709-1001,68,5,ZOCOR,UNCODED,,UNCODED,10.000,mg,QD,ORAL,11,WEEK 20,140,2/24/2014 10:00,2013-07-08,,5,10
CDISCPILOT01,CM,01-709-1020,27,1,ADVIL,UNCODED,PROPHYLAXIS OR NON-THERAPEUTIC USE,UNCODED,1.000,TABLET,PRN,ORAL,11,WEEK 20,140,4/19/2013 07:00,2012-11-14,,5,10
CDISCPILOT01,CM,01-709-1312,44,2,NORVASC,AMLODIPINE,,CARDIOVASCULAR SYSTEM,5.000,mg,QD,ORAL,11,WEEK 20,140,9/6/2014 07:00,2014-03-24,,5,10
CDISCPILOT01,CM,01-710-1060,49,3,PREDNISONE,UNCODED,,UNCODED,1.000,%,QD,OPHTHALMIC,11,WEEK 20,140,5/23/2013 07:00,2012-04-18,,5,10
CDISCPILOT01,CM,01-713-1043,29,2,IBUPROFEN,UNCODED,PROPHYLAXIS OR NON-THERAPEUTIC USE,UNCODED,400.000,mg,QD,ORAL,11,WEEK 20,140,1/25/2014 10:00,2013-06-21,,5,10
CDISCPILOT01,CM,01-713-1073,56,1,ASPIRIN (E.C.),UNCODED,,UNCODED,325.000,mg,QD,ORAL,11,WEEK 20,140,8/16/2014 07:00,2014-01-27,,5,10
CDISCPILOT01,CM,01-713-1073,55,5,VITAMIN B12,UNCODED,,UNCODED,1000.000,ug,QM,INTRAMUSCULAR,11,WEEK 20,140,8/16/2014 07:00,2013-07-20,,5,10
CDISCPILOT01,CM,01-713-1209,102,1,AXID,NIZATIDINE,,ALIMENTARY TRACT AND METABOLISM,150.000,mg,QD,ORAL,11,WEEK 20,140,10/13/2013 07:00,2013-05-09,,5,10
CDISCPILOT01,CM,01-713-1209,101,3,QUESTRAN,UNCODED,PROPHYLAXIS OR NON-THERAPEUTIC USE,UNCODED,0.500,,TID,ORAL,11,WEEK 20,140,10/13/2013 07:00,2012-10-31,,5,10
CDISCPILOT01,CM,01-713-1269,40,3,VITAMIN E,UNCODED,PROPHYLAXIS OR NON-THERAPEUTIC USE,UNCODED,1000.000,IU,BID,ORAL,11,WEEK 20,140,6/14/2014 07:00,2013-11-02,,5,10
CDISCPILOT01,CM,01-715-1397,34,1,GLUCOPHAGE,METFORMIN HYDROCHLORIDE,,ALIMENTARY TRACT AND METABOLISM,850.000,mg,TID,ORAL,11,WEEK 20,140,8/20/2013 07:00,2011-10-28,,5,10
CDISCPILOT01,CM,01-716-1026,57,4,MONOPRIL,UNCODED,,UNCODED,20.000,mg,QD,ORAL,11,WEEK 20,140,8/27/2014 07:00,2014-02-26,,5,10
CDISCPILOT01,CM,01-716-1157,134,3,CARDURA,DOXAZOSIN MESILATE,,CARDIOVASCULAR SYSTEM,2.000,mg,QD,ORAL,11,WEEK 20,140,2/23/2014 10:00,2013-09-21,,5,10
CDISCPILOT01,CM,01-716-1189,23,1,AXID,NIZATIDINE,,ALIMENTARY TRACT AND METABOLISM,75.000,mg,BID,ORAL,11,WEEK 20,140,3/2/2013 10:00,2012-09-29,,5,10
CDISCPILOT01,CM,01-716-1189,24,2,MILK OF MAGNESIA,UNCODED,PROPHYLAXIS OR NON-THERAPEUTIC USE,UNCODED,1.000,Tbsp,QD,ORAL,11,WEEK 20,140,3/2/2013 10:00,2012-09-29,,5,10
CDISCPILOT01,CM,01-717-1004,65,2,FOSAMAX,UNCODED,,UNCODED,10.000,mg,QD,ORAL,11,WEEK 20,140,6/2/2014 07:00,2013-01-26,,5,10
CDISCPILOT01,CM,01-717-1109,26,1,SYNTHROID,UNCODED,,UNCODED,0.100,mg,QD,ORAL,11,WEEK 20,140,6/15/2014 07:00,2012-01-13,,5,10
CDISCPILOT01,CM,01-718-1150,30,1,MULTIVITAMIN,UNCODED,PROPHYLAXIS OR NON-THERAPEUTIC USE,UNCODED,1.000,TABLET,QD,ORAL,11,WEEK 20,140,6/6/2013 07:00,2012-10-27,,5,10
CDISCPILOT01,CM,01-718-1150,29,2,VITAMIN B12,UNCODED,,UNCODED,1000.000,mg,Q4S,INTRAMUSCULAR,11,WEEK 20,140,6/6/2013 07:00,2012-06-27,,5,10
CDISCPILOT01,CM,01-701-1118,23,1,ASPIRIN,ACETYLSALICYLIC ACID,PROPHYLAXIS OR NON-THERAPEUTIC USE,NERVOUS SYSTEM,325.000,mg,PRN,ORAL,12,WEEK 24,168,8/26/2014 07:00,2000-12-10,,5,10
CDISCPILOT01,CM,01-701-1118,24,2,MULTIVITAMIN,UNCODED,PROPHYLAXIS OR NON-THERAPEUTIC USE,UNCODED,1.000,TABLET,QD,ORAL,12,WEEK 24,168,8/26/2014 07:00,2012-01-21,,5,10
CDISCPILOT01,CM,01-701-1192,32,2,MULTIVITAMINS,UNCODED,PROPHYLAXIS OR NON-THERAPEUTIC USE,UNCODED,2.000,TABLET,TID,ORAL,12,WEEK 24,168,1/10/2013 10:00,2011-05-19,,5,10
CDISCPILOT01,CM,01-701-1287,30,2,PREMARIN,ESTROGENS CONJUGATED,PROPHYLAXIS OR NON-THERAPEUTIC USE,GENITO URINARY SYSTEM AND SEX HORMONES,0.625,mg,QD,ORAL,12,WEEK 24,168,7/11/2014 07:00,2013-06-28,,5,10
CDISCPILOT01,CM,01-701-1392,48,4,ZESTRIL,UNCODED,,UNCODED,5.000,mg,QD,ORAL,12,WEEK 24,168,4/14/2013 07:00,2011-03-17,,5,10
CDISCPILOT01,CM,01-703-1042,37,1,NORVASC,AMLODIPINE,,CARDIOVASCULAR SYSTEM,5.000,mg,QD,ORAL,12,WEEK 24,168,8/8/2013 07:00,2013-01-27,,5,10
CDISCPILOT01,CM,01-703-1100,44,3,VITAMIN B12,UNCODED,PROPHYLAXIS OR NON-THERAPEUTIC USE,UNCODED,15.000,ug,PRN,ORAL,12,WEEK 24,168,8/27/2013 07:00,2012-01-19,,5,10
CDISCPILOT01,CM,01-703-1379,36,2,MONOPRIL,UNCODED,,UNCODED,10.000,mg,QD,ORAL,12,WEEK 24,168,3/7/2014 10:00,2013-06-07,,5,10
CDISCPILOT01,CM,01-704-1127,12,1,MULTIVITAMIN,UNCODED,PROPHYLAXIS OR NON-THERAPEUTIC USE,UNCODED,1.000,TABLET,QD,ORAL,12,WEEK 24,168,3/17/2014 10:00,2010-08-11,,5,10
CDISCPILOT01,CM,01-708-1084,35,3,TIMOPTIC,UNCODED,,UNCODED,1.000,gtt,QD,OPHTHALMIC,12,WEEK 24,168,10/28/2013 10:00,2013-04-26,,5,10
CDISCPILOT01,CM,01-708-1336,26,4,PRINIVIL,UNCODED,,UNCODED,10.000,mg,QD,ORAL,12,WEEK 24,168,5/21/2013 07:00,2011-07-15,2013-06-05,5,10
CDISCPILOT01,CM,01-709-1001,70,4,ZINC,UNCODED,PROPHYLAXIS OR NON-THERAPEUTIC USE,UNCODED,1.000,TABLET,QD,ORAL,12,WEEK 24,168,3/17/2014 10:00,2012-09-05,,5,10
CDISCPILOT01,CM,01-709-1001,74,5,ZOCOR,UNCODED,,UNCODED,10.000,mg,QD,ORAL,12,WEEK 24,168,3/17/2014 10:00,2013-07-08,,5,10
CDISCPILOT01,CM,01-709-1020,30,1,ADVIL,UNCODED,PROPHYLAXIS OR NON-THERAPEUTIC USE,UNCODED,1.000,TABLET,PRN,ORAL,12,WEEK 24,168,5/17/2013 07:00,2012-11-14,,5,10
CDISCPILOT01,CM,01-709-1312,48,2,NORVASC,AMLODIPINE,,CARDIOVASCULAR SYSTEM,5.000,mg,QD,ORAL,12,WEEK 24,168,10/4/2014 07:00,2014-03-24,,5,10
CDISCPILOT01,CM,01-710-1060,53,3,PREDNISONE,UNCODED,,UNCODED,1.000,%,QD,OPHTHALMIC,12,WEEK 24,168,6/20/2013 07:00,2012-04-18,,5,10
CDISCPILOT01,CM,01-713-1043,33,2,IBUPROFEN,UNCODED,PROPHYLAXIS OR NON-THERAPEUTIC USE,UNCODED,400.000,mg,QD,ORAL,12,WEEK 24,168,2/27/2014 10:00,2013-06-21,,5,10
CDISCPILOT01,CM,01-713-1073,62,1,ASPIRIN (E.C.),UNCODED,,UNCODED,325.000,mg,QD,ORAL,12,WEEK 24,168,9/20/2014 07:00,2014-01-27,,5,10
CDISCPILOT01,CM,01-713-1073,61,5,VITAMIN B12,UNCODED,,UNCODED,1000.000,ug,QM,INTRAMUSCULAR,12,WEEK 24,168,9/20/2014 07:00,2013-07-20,,5,10
CDISCPILOT01,CM,01-713-1209,113,1,AXID,NIZATIDINE,,ALIMENTARY TRACT AND METABOLISM,150.000,mg,QD,ORAL,12,WEEK 24,168,11/13/2013 10:00,2013-05-09,,5,10
CDISCPILOT01,CM,01-713-1209,112,3,QUESTRAN,UNCODED,PROPHYLAXIS OR NON-THERAPEUTIC USE,UNCODED,0.500,,TID,ORAL,12,WEEK 24,168,11/13/2013 10:00,2012-10-31,,5,10
CDISCPILOT01,CM,01-713-1269,45,3,VITAMIN E,UNCODED,PROPHYLAXIS OR NON-THERAPEUTIC USE,UNCODED,1000.000,IU,BID,ORAL,12,WEEK 24,168,7/12/2014 07:00,2013-11-02,,5,10
CDISCPILOT01,CM,01-715-1397,39,1,GLUCOPHAGE,METFORMIN HYDROCHLORIDE,,ALIMENTARY TRACT AND METABOLISM,850.000,mg,TID,ORAL,12,WEEK 24,168,9/17/2013 07:00,2011-10-28,,5,10
CDISCPILOT01,CM,01-716-1026,63,4,MONOPRIL,UNCODED,,UNCODED,20.000,mg,QD,ORAL,12,WEEK 24,168,9/26/2014 07:00,2014-02-26,,5,10
CDISCPILOT01,CM,01-716-1157,149,3,CARDURA,DOXAZOSIN MESILATE,,CARDIOVASCULAR SYSTEM,2.000,mg,QD,ORAL,12,WEEK 24,168,3/26/2014 10:00,2013-09-21,,5,10
CDISCPILOT01,CM,01-717-1004,71,2,FOSAMAX,UNCODED,,UNCODED,10.000,mg,QD,ORAL,12,WEEK 24,168,6/30/2014 07:00,2013-01-26,,5,10
CDISCPILOT01,CM,01-717-1109,29,1,SYNTHROID,UNCODED,,UNCODED,0.100,mg,QD,ORAL,12,WEEK 24,168,7/17/2014 07:00,2012-01-13,,5,10
CDISCPILOT01,CM,01-718-1150,32,1,MULTIVITAMIN,UNCODED,PROPHYLAXIS OR NON-THERAPEUTIC USE,UNCODED,1.000,TABLET,QD,ORAL,12,WEEK 24,168,7/6/2013 07:00,2012-10-27,,5,10
CDISCPILOT01,CM,01-718-1150,31,2,VITAMIN B12,UNCODED,,UNCODED,1000.000,mg,Q4S,INTRAMUSCULAR,12,WEEK 24,168,7/6/2013 07:00,2012-06-27,,5,10
CDISCPILOT01,CM,01-701-1118,25,1,ASPIRIN,ACETYLSALICYLIC ACID,PROPHYLAXIS OR NON-THERAPEUTIC USE,NERVOUS SYSTEM,325.000,mg,PRN,ORAL,13,WEEK 26,182,9/8/2014 07:00,2000-12-10,,5,10
CDISCPILOT01,CM,01-701-1118,26,2,MULTIVITAMIN,UNCODED,PROPHYLAXIS OR NON-THERAPEUTIC USE,UNCODED,1.000,TABLET,QD,ORAL,13,WEEK 26,182,9/8/2014 07:00,2012-01-21,,5,10
CDISCPILOT01,CM,01-701-1192,36,2,MULTIVITAMINS,UNCODED,PROPHYLAXIS OR NON-THERAPEUTIC USE,UNCODED,2.000,TABLET,TID,ORAL,13,WEEK 26,182,1/19/2013 10:00,2011-05-19,,5,10
CDISCPILOT01,CM,01-701-1287,34,2,PREMARIN,ESTROGENS CONJUGATED,PROPHYLAXIS OR NON-THERAPEUTIC USE,GENITO URINARY SYSTEM AND SEX HORMONES,0.625,mg,QD,ORAL,13,WEEK 26,182,7/25/2014 07:00,2013-06-28,,5,10
CDISCPILOT01,CM,01-701-1392,52,4,ZESTRIL,UNCODED,,UNCODED,5.000,mg,QD,ORAL,13,WEEK 26,182,4/27/2013 07:00,2011-03-17,,5,10
CDISCPILOT01,CM,01-703-1042,40,1,NORVASC,AMLODIPINE,,CARDIOVASCULAR SYSTEM,5.000,mg,QD,ORAL,13,WEEK 26,182,8/30/2013 07:00,2013-01-27,,5,10
CDISCPILOT01,CM,01-703-1100,48,3,VITAMIN B12,UNCODED,PROPHYLAXIS OR NON-THERAPEUTIC USE,UNCODED,15.000,ug,PRN,ORAL,13,WEEK 26,182,9/13/2013 07:00,2012-01-19,,5,10
CDISCPILOT01,CM,01-703-1379,39,2,MONOPRIL,UNCODED,,UNCODED,10.000,mg,QD,ORAL,13,WEEK 26,182,3/21/2014 10:00,2013-06-07,,5,10
CDISCPILOT01,CM,01-704-1127,13,1,MULTIVITAMIN,UNCODED,PROPHYLAXIS OR NON-THERAPEUTIC USE,UNCODED,1.000,TABLET,QD,ORAL,13,WEEK 26,182,3/30/2014 09:00,2010-08-11,,5,10
CDISCPILOT01,CM,01-708-1084,39,3,TIMOPTIC,UNCODED,,UNCODED,1.000,gtt,QD,OPHTHALMIC,13,WEEK 26,182,11/10/2013 10:00,2013-04-26,,5,10
CDISCPILOT01,CM,01-708-1336,30,4,PRINIVIL,UNCODED,,UNCODED,10.000,mg,QD,ORAL,13,WEEK 26,182,6/4/2013 07:00,2011-07-15,2013-06-05,5,10
CDISCPILOT01,CM,01-709-1001,77,4,ZINC,UNCODED,PROPHYLAXIS OR NON-THERAPEUTIC USE,UNCODED,1.000,TABLET,QD,ORAL,13,WEEK 26,182,4/7/2014 07:00,2012-09-05,,5,10
CDISCPILOT01,CM,01-709-1001,81,5,ZOCOR,UNCODED,,UNCODED,10.000,mg,QD,ORAL,13,WEEK 26,182,4/7/2014 07:00,2013-07-08,,5,10
CDISCPILOT01,CM,01-709-1020,33,1,ADVIL,UNCODED,PROPHYLAXIS OR NON-THERAPEUTIC USE,UNCODED,1.000,TABLET,PRN,ORAL,13,WEEK 26,182,5/31/2013 07:00,2012-11-14,,5,10
CDISCPILOT01,CM,01-709-1312,52,2,NORVASC,AMLODIPINE,,CARDIOVASCULAR SYSTEM,5.000,mg,QD,ORAL,13,WEEK 26,182,10/18/2014 07:00,2014-03-24,,5,10
CDISCPILOT01,CM,01-710-1060,57,3,PREDNISONE,UNCODED,,UNCODED,1.000,%,QD,OPHTHALMIC,13,WEEK 26,182,7/4/2013 07:00,2012-04-18,,5,10
CDISCPILOT01,CM,01-713-1043,37,2,IBUPROFEN,UNCODED,PROPHYLAXIS OR NON-THERAPEUTIC USE,UNCODED,400.000,mg,QD,ORAL,13,WEEK 26,182,3/24/2014 10:00,2013-06-21,,5,10
CDISCPILOT01,CM,01-713-1073,68,1,ASPIRIN (E.C.),UNCODED,,UNCODED,325.000,mg,QD,ORAL,13,WEEK 26,182,10/4/2014 07:00,2014-01-27,,5,10
CDISCPILOT01,CM,01-713-1073,67,5,VITAMIN B12,UNCODED,,UNCODED,1000.000,ug,QM,INTRAMUSCULAR,13,WEEK 26,182,10/4/2014 07:00,2013-07-20,,5,10
CDISCPILOT01,CM,01-713-1209,124,1,AXID,NIZATIDINE,,ALIMENTARY TRACT AND METABOLISM,150.000,mg,QD,ORAL,13,WEEK 26,182,11/21/2013 10:00,2013-05-09,,5,10
CDISCPILOT01,CM,01-713-1209,123,3,QUESTRAN,UNCODED,PROPHYLAXIS OR NON-THERAPEUTIC USE,UNCODED,0.500,,TID,ORAL,13,WEEK 26,182,11/21/2013 10:00,2012-10-31,,5,10
CDISCPILOT01,CM,01-713-1269,50,3,VITAMIN E,UNCODED,PROPHYLAXIS OR NON-THERAPEUTIC USE,UNCODED,1000.000,IU,BID,ORAL,13,WEEK 26,182,7/27/2014 07:00,2013-11-02,,5,10
CDISCPILOT01,CM,01-715-1397,44,1,GLUCOPHAGE,METFORMIN HYDROCHLORIDE,,ALIMENTARY TRACT AND METABOLISM,850.000,mg,TID,ORAL,13,WEEK 26,182,10/2/2013 07:00,2011-10-28,,5,10
CDISCPILOT01,CM,01-716-1026,68,4,MONOPRIL,UNCODED,,UNCODED,20.000,mg,QD,ORAL,13,WEEK 26,182,10/15/2014 07:00,2014-02-26,,5,10
CDISCPILOT01,CM,01-716-1157,163,3,CARDURA,DOXAZOSIN MESILATE,,CARDIOVASCULAR SYSTEM,2.000,mg,QD,ORAL,13,WEEK 26,182,4/4/2014 07:00,2013-09-21,,5,10
CDISCPILOT01,CM,01-717-1004,77,2,FOSAMAX,UNCODED,,UNCODED,10.000,mg,QD,ORAL,13,WEEK 26,182,7/15/2014 07:00,2013-01-26,,5,10
CDISCPILOT01,CM,01-717-1109,33,1,SYNTHROID,UNCODED,,UNCODED,0.100,mg,QD,ORAL,13,WEEK 26,182,7/27/2014 07:00,2012-01-13,,5,10
CDISCPILOT01,CM,01-718-1150,34,1,MULTIVITAMIN,UNCODED,PROPHYLAXIS OR NON-THERAPEUTIC USE,UNCODED,1.000,TABLET,QD,ORAL,13,WEEK 26,182,7/30/2013 07:00,2012-10-27,,5,10
CDISCPILOT01,CM,01-718-1150,33,2,VITAMIN B12,UNCODED,,UNCODED,1000.000,mg,Q4S,INTRAMUSCULAR,13,WEEK 26,182,7/30/2013 07:00,2012-06-27,,5,10
CDISCPILOT01,CM,01-701-1118,9,1,ASPIRIN,ACETYLSALICYLIC ACID,PROPHYLAXIS OR NON-THERAPEUTIC USE,NERVOUS SYSTEM,325.000,mg,PRN,ORAL,5,WEEK 4,28,4/8/2014 07:00,2000-12-10,,5,10
CDISCPILOT01,CM,01-701-1118,10,2,MULTIVITAMIN,UNCODED,PROPHYLAXIS OR NON-THERAPEUTIC USE,UNCODED,1.000,TABLET,QD,ORAL,5,WEEK 4,28,4/8/2014 07:00,2012-01-21,,5,10
CDISCPILOT01,CM,01-701-1192,10,2,MULTIVITAMINS,UNCODED,PROPHYLAXIS OR NON-THERAPEUTIC USE,UNCODED,2.000,TABLET,TID,ORAL,5,WEEK 4,28,8/20/2012 07:00,2011-05-19,,5,10
CDISCPILOT01,CM,01-701-1287,10,2,PREMARIN,ESTROGENS CONJUGATED,PROPHYLAXIS OR NON-THERAPEUTIC USE,GENITO URINARY SYSTEM AND SEX HORMONES,0.625,mg,QD,ORAL,5,WEEK 4,28,2/19/2014 10:00,2013-06-28,,5,10
CDISCPILOT01,CM,01-701-1302,22,3,METAMUCIL,UNCODED,,UNCODED,2.000,Tbsp,QD,ORAL,5,WEEK 4,28,9/23/2013 07:00,2012-03-01,,5,10
CDISCPILOT01,CM,01-701-1392,20,4,ZESTRIL,UNCODED,,UNCODED,5.000,mg,QD,ORAL,5,WEEK 4,28,11/23/2012 10:00,2011-03-17,,5,10
CDISCPILOT01,CM,01-703-1042,16,1,NORVASC,AMLODIPINE,,CARDIOVASCULAR SYSTEM,5.000,mg,QD,ORAL,5,WEEK 4,28,3/28/2013 10:00,2013-01-27,,5,10
CDISCPILOT01,CM,01-703-1076,15,3,LOPID,UNCODED,,UNCODED,600.000,mg,BID,ORAL,5,WEEK 4,28,11/19/2013 10:00,2013-08-31,2013-11-27,5,10
CDISCPILOT01,CM,01-703-1076,14,2,TIMOPTIC,UNCODED,,UNCODED,1.000,gtt,EVERY NIGHT,OPHTHALMIC,5,WEEK 4,28,11/19/2013 10:00,2012-11-13,,5,10
CDISCPILOT01,CM,01-703-1100,15,3,VITAMIN B12,UNCODED,PROPHYLAXIS OR NON-THERAPEUTIC USE,UNCODED,15.000,ug,PRN,ORAL,5,WEEK 4,28,4/11/2013 07:00,2012-01-19,,5,10
CDISCPILOT01,CM,01-703-1119,14,1,NORVASC,AMLODIPINE,,CARDIOVASCULAR SYSTEM,5.000,mg,QD,ORAL,5,WEEK 4,28,3/21/2013 10:00,2013-01-20,,5,10
CDISCPILOT01,CM,01-703-1119,13,2,PREMARIN,ESTROGENS CONJUGATED,PROPHYLAXIS OR NON-THERAPEUTIC USE,GENITO URINARY SYSTEM AND SEX HORMONES,0.300,mg,QD,ORAL,5,WEEK 4,28,3/21/2013 10:00,2012-01-13,,5,10
CDISCPILOT01,CM,01-703-1119,15,3,ZOCOR,UNCODED,,UNCODED,10.000,mg,QD,ORAL,5,WEEK 4,28,3/21/2013 10:00,2013-01-20,,5,10
CDISCPILOT01,CM,01-703-1379,15,2,MONOPRIL,UNCODED,,UNCODED,10.000,mg,QD,ORAL,5,WEEK 4,28,10/18/2013 07:00,2013-06-07,,5,10
CDISCPILOT01,CM,01-704-1008,15,3,SYNTHROID,UNCODED,,UNCODED,0.075,mg,QD,ORAL,5,WEEK 4,28,2/8/2013 10:00,2012-12-09,2013-02-07,5,10
CDISCPILOT01,CM,01-704-1009,20,3,MULTIVITAMIN,UNCODED,PROPHYLAXIS OR NON-THERAPEUTIC USE,UNCODED,1.000,TABLET,QD,ORAL,5,WEEK 4,28,10/1/2013 07:00,2013-08-08,,5,10
CDISCPILOT01,CM,01-704-1093,12,1,HYTRIN,UNCODED,,UNCODED,2.000,mg,QD,ORAL,5,WEEK 4,28,4/11/2013 07:00,2013-02-02,,5,10
CDISCPILOT01,CM,01-704-1127,5,1,MULTIVITAMIN,UNCODED,PROPHYLAXIS OR NON-THERAPEUTIC USE,UNCODED,1.000,TABLET,QD,ORAL,5,WEEK 4,28,10/30/2013 10:00,2010-08-11,,5,10
CDISCPILOT01,CM,01-704-1266,22,4,ZESTRIL,UNCODED,,UNCODED,5.000,mg,QD,ORAL,5,WEEK 4,28,11/7/2013 10:00,2013-06-20,,5,10
CDISCPILOT01,CM,01-704-1323,51,10,CLARITIN,UNCODED,,UNCODED,10.000,mg,QD,ORAL,5,WEEK 4,28,8/3/2013 07:00,2013-06-23,,5,10
CDISCPILOT01,CM,01-704-1323,50,4,FOSAMAX,UNCODED,,UNCODED,10.000,mg,QD,ORAL,5,WEEK 4,28,8/3/2013 07:00,2013-05-09,,5,10
CDISCPILOT01,CM,01-704-1435,30,2,BENZALKONIUM CHLORIDE,UNCODED,,UNCODED,1.000,,QD,OPHTHALMIC,5,WEEK 4,28,12/14/2012 10:00,2012-08-08,,5,10
CDISCPILOT01,CM,01-708-1084,15,3,TIMOPTIC,UNCODED,,UNCODED,1.000,gtt,QD,OPHTHALMIC,5,WEEK 4,28,6/8/2013 07:00,2013-04-26,,5,10
CDISCPILOT01,CM,01-708-1178,10,1,MAXZIDE,UNCODED,,UNCODED,1.000,TABLET,QD,ORAL,5,WEEK 4,28,2/1/2014 10:00,2013-12-13,,5,10
CDISCPILOT01,CM,01-708-1216,11,2,NORVASC,AMLODIPINE,,CARDIOVASCULAR SYSTEM,5.000,mg,QD,ORAL,5,WEEK 4,28,11/21/2012 10:00,2012-10-10,,5,10
CDISCPILOT01,CM,01-708-1336,10,4,PRINIVIL,UNCODED,,UNCODED,10.000,mg,QD,ORAL,5,WEEK 4,28,12/31/2012 10:00,2011-07-15,2013-06-05,5,10
CDISCPILOT01,CM,01-709-1001,28,4,ZINC,UNCODED,PROPHYLAXIS OR NON-THERAPEUTIC USE,UNCODED,1.000,TABLET,QD,ORAL,5,WEEK 4,28,11/2/2013 10:00,2012-09-05,,5,10
CDISCPILOT01,CM,01-709-1001,32,5,ZOCOR,UNCODED,,UNCODED,10.000,mg,QD,ORAL,5,WEEK 4,28,11/2/2013 10:00,2013-07-08,,5,10
CDISCPILOT01,CM,01-709-1020,10,1,ADVIL,UNCODED,PROPHYLAXIS OR NON-THERAPEUTIC USE,UNCODED,1.000,TABLET,PRN,ORAL,5,WEEK 4,28,12/26/2012 10:00,2012-11-14,,5,10
CDISCPILOT01,CM,01-709-1312,20,2,NORVASC,AMLODIPINE,,CARDIOVASCULAR SYSTEM,5.000,mg,QD,ORAL,5,WEEK 4,28,5/16/2014 07:00,2014-03-24,,5,10
CDISCPILOT01,CM,01-710-1060,22,3,PREDNISONE,UNCODED,,UNCODED,1.000,%,QD,OPHTHALMIC,5,WEEK 4,28,1/31/2013 10:00,2012-04-18,,5,10
CDISCPILOT01,CM,01-711-1012,13,2,DYAZIDE,UNCODED,,UNCODED,37.500,mg,QD,ORAL,5,WEEK 4,28,5/1/2013 07:00,2013-03-02,,5,10
CDISCPILOT01,CM,01-711-1036,9,4,ALBUTEROL,UNCODED,,UNCODED,2.000,PUFF,QID,RESPIRATORY (INHALATION),5,WEEK 4,28,8/28/2012 07:00,2011-10-12,2012-10-22,5,10
CDISCPILOT01,CM,01-711-1143,10,4,SYNTHROID,UNCODED,,UNCODED,0.150,mg,QD,ORAL,5,WEEK 4,28,4/28/2013 07:00,2009-03-03,2013-05-20,5,10
CDISCPILOT01,CM,01-713-1043,10,2,IBUPROFEN,UNCODED,PROPHYLAXIS OR NON-THERAPEUTIC USE,UNCODED,400.000,mg,QD,ORAL,5,WEEK 4,28,10/10/2013 07:00,2013-06-21,,5,10
CDISCPILOT01,CM,01-713-1073,25,1,ASPIRIN (E.C.),UNCODED,,UNCODED,325.000,mg,QD,ORAL,5,WEEK 4,28,4/25/2014 07:00,2014-01-27,,5,10
CDISCPILOT01,CM,01-713-1073,24,5,VITAMIN B12,UNCODED,,UNCODED,1000.000,ug,QM,INTRAMUSCULAR,5,WEEK 4,28,4/25/2014 07:00,2013-07-20,,5,10
CDISCPILOT01,CM,01-713-1209,40,1,AXID,NIZATIDINE,,ALIMENTARY TRACT AND METABOLISM,150.000,mg,QD,ORAL,5,WEEK 4,28,6/21/2013 07:00,2013-05-09,,5,10
CDISCPILOT01,CM,01-713-1209,39,3,QUESTRAN,UNCODED,PROPHYLAXIS OR NON-THERAPEUTIC USE,UNCODED,0.500,,TID,ORAL,5,WEEK 4,28,6/21/2013 07:00,2012-10-31,,5,10
CDISCPILOT01,CM,01-713-1269,16,3,VITAMIN E,UNCODED,PROPHYLAXIS OR NON-THERAPEUTIC USE,UNCODED,1000.000,IU,BID,ORAL,5,WEEK 4,28,2/22/2014 10:00,2013-11-02,,5,10
CDISCPILOT01,CM,01-714-1068,18,1,CALCIUM,CALCIUM,,ALIMENTARY TRACT AND METABOLISM,500.000,mg,TID,ORAL,5,WEEK 4,28,9/4/2013 07:00,2012-09-25,,5,10
CDISCPILOT01,CM,01-715-1397,14,1,GLUCOPHAGE,METFORMIN HYDROCHLORIDE,,ALIMENTARY TRACT AND METABOLISM,850.000,mg,TID,ORAL,5,WEEK 4,28,4/30/2013 07:00,2011-10-28,,5,10
CDISCPILOT01,CM,01-716-1026,26,4,MONOPRIL,UNCODED,,UNCODED,20.000,mg,QD,ORAL,5,WEEK 4,28,4/29/2014 07:00,2014-02-26,,5,10
CDISCPILOT01,CM,01-716-1071,25,1,CHLORAL HYDRATE,UNCODED,,UNCODED,500.000,mg,PRN,ORAL,5,WEEK 4,28,7/4/2013 07:00,2013-05-26,,5,10
CDISCPILOT01,CM,01-716-1157,55,3,CARDURA,DOXAZOSIN MESILATE,,CARDIOVASCULAR SYSTEM,2.000,mg,QD,ORAL,5,WEEK 4,28,11/3/2013 10:00,2013-09-21,,5,10
CDISCPILOT01,CM,01-716-1189,9,1,AXID,NIZATIDINE,,ALIMENTARY TRACT AND METABOLISM,75.000,mg,BID,ORAL,5,WEEK 4,28,11/10/2012 10:00,2012-09-29,,5,10
CDISCPILOT01,CM,01-716-1189,10,2,MILK OF MAGNESIA,UNCODED,PROPHYLAXIS OR NON-THERAPEUTIC USE,UNCODED,1.000,Tbsp,QD,ORAL,5,WEEK 4,28,11/10/2012 10:00,2012-09-29,,5,10
CDISCPILOT01,CM,01-717-1004,29,2,FOSAMAX,UNCODED,,UNCODED,10.000,mg,QD,ORAL,5,WEEK 4,28,2/8/2014 10:00,2013-01-26,,5,10
CDISCPILOT01,CM,01-717-1004,30,13,FUROSEMIDE,UNCODED,,UNCODED,40.000,mg,QD,ORAL,5,WEEK 4,28,2/8/2014 10:00,2013-08-20,2014-04-24,5,10
CDISCPILOT01,CM,01-717-1109,9,1,SYNTHROID,UNCODED,,UNCODED,0.100,mg,QD,ORAL,5,WEEK 4,28,2/22/2014 10:00,2012-01-13,,5,10
CDISCPILOT01,CM,01-718-1150,14,1,MULTIVITAMIN,UNCODED,PROPHYLAXIS OR NON-THERAPEUTIC USE,UNCODED,1.000,TABLET,QD,ORAL,5,WEEK 4,28,2/15/2013 10:00,2012-10-27,,5,10
CDISCPILOT01,CM,01-718-1150,13,2,VITAMIN B12,UNCODED,,UNCODED,1000.000,mg,Q4S,INTRAMUSCULAR,5,WEEK 4,28,2/15/2013 10:00,2012-06-27,,5,10
CDISCPILOT01,CM,01-718-1170,10,2,MULTIVITAMIN,UNCODED,PROPHYLAXIS OR NON-THERAPEUTIC USE,UNCODED,1.000,TABLET,QD,ORAL,5,WEEK 4,28,11/3/2013 10:00,2012-09-28,,5,10
CDISCPILOT01,CM,01-718-1170,11,3,TYLENOL,UNCODED,PROPHYLAXIS OR NON-THERAPEUTIC USE,UNCODED,325.000,mg,QD,ORAL,5,WEEK 4,28,11/3/2013 10:00,2012-09-28,,5,10
CDISCPILOT01,CM,01-701-1118,13,1,ASPIRIN,ACETYLSALICYLIC ACID,PROPHYLAXIS OR NON-THERAPEUTIC USE,NERVOUS SYSTEM,325.000,mg,PRN,ORAL,7,WEEK 6,42,4/22/2014 07:00,2000-12-10,,5,10
CDISCPILOT01,CM,01-701-1118,14,2,MULTIVITAMIN,UNCODED,PROPHYLAXIS OR NON-THERAPEUTIC USE,UNCODED,1.000,TABLET,QD,ORAL,7,WEEK 6,42,4/22/2014 07:00,2012-01-21,,5,10
CDISCPILOT01,CM,01-701-1192,14,2,MULTIVITAMINS,UNCODED,PROPHYLAXIS OR NON-THERAPEUTIC USE,UNCODED,2.000,TABLET,TID,ORAL,7,WEEK 6,42,9/3/2012 07:00,2011-05-19,,5,10
CDISCPILOT01,CM,01-701-1287,14,2,PREMARIN,ESTROGENS CONJUGATED,PROPHYLAXIS OR NON-THERAPEUTIC USE,GENITO URINARY SYSTEM AND SEX HORMONES,0.625,mg,QD,ORAL,7,WEEK 6,42,3/5/2014 10:00,2013-06-28,,5,10
CDISCPILOT01,CM,01-701-1302,34,3,METAMUCIL,UNCODED,,UNCODED,2.000,Tbsp,QD,ORAL,7,WEEK 6,42,10/7/2013 07:00,2012-03-01,,5,10
CDISCPILOT01,CM,01-701-1392,28,4,ZESTRIL,UNCODED,,UNCODED,5.000,mg,QD,ORAL,7,WEEK 6,42,12/8/2012 10:00,2011-03-17,,5,10
CDISCPILOT01,CM,01-703-1042,22,1,NORVASC,AMLODIPINE,,CARDIOVASCULAR SYSTEM,5.000,mg,QD,ORAL,7,WEEK 6,42,4/12/2013 07:00,2013-01-27,,5,10
CDISCPILOT01,CM,01-703-1076,21,3,LOPID,UNCODED,,UNCODED,600.000,mg,BID,ORAL,7,WEEK 6,42,12/3/2013 10:00,2013-08-31,2013-11-27,5,10
CDISCPILOT01,CM,01-703-1076,20,2,TIMOPTIC,UNCODED,,UNCODED,1.000,gtt,EVERY NIGHT,OPHTHALMIC,7,WEEK 6,42,12/3/2013 10:00,2012-11-13,,5,10
CDISCPILOT01,CM,01-703-1100,23,3,VITAMIN B12,UNCODED,PROPHYLAXIS OR NON-THERAPEUTIC USE,UNCODED,15.000,ug,PRN,ORAL,7,WEEK 6,42,4/23/2013 07:00,2012-01-19,,5,10
CDISCPILOT01,CM,01-703-1119,20,1,NORVASC,AMLODIPINE,,CARDIOVASCULAR SYSTEM,5.000,mg,QD,ORAL,7,WEEK 6,42,4/3/2013 07:00,2013-01-20,,5,10
CDISCPILOT01,CM,01-703-1119,19,2,PREMARIN,ESTROGENS CONJUGATED,PROPHYLAXIS OR NON-THERAPEUTIC USE,GENITO URINARY SYSTEM AND SEX HORMONES,0.300,mg,QD,ORAL,7,WEEK 6,42,4/3/2013 07:00,2012-01-13,,5,10
CDISCPILOT01,CM,01-703-1119,21,3,ZOCOR,UNCODED,,UNCODED,10.000,mg,QD,ORAL,7,WEEK 6,42,4/3/2013 07:00,2013-01-20,,5,10
CDISCPILOT01,CM,01-703-1379,21,2,MONOPRIL,UNCODED,,UNCODED,10.000,mg,QD,ORAL,7,WEEK 6,42,11/7/2013 10:00,2013-06-07,,5,10
CDISCPILOT01,CM,01-704-1093,16,1,HYTRIN,UNCODED,,UNCODED,2.000,mg,QD,ORAL,7,WEEK 6,42,4/24/2013 07:00,2013-02-02,,5,10
CDISCPILOT01,CM,01-704-1127,7,1,MULTIVITAMIN,UNCODED,PROPHYLAXIS OR NON-THERAPEUTIC USE,UNCODED,1.000,TABLET,QD,ORAL,7,WEEK 6,42,11/12/2013 10:00,2010-08-11,,5,10
CDISCPILOT01,CM,01-704-1266,32,4,ZESTRIL,UNCODED,,UNCODED,5.000,mg,QD,ORAL,7,WEEK 6,42,11/21/2013 10:00,2013-06-20,,5,10
CDISCPILOT01,CM,01-704-1323,74,10,CLARITIN,UNCODED,,UNCODED,10.000,mg,QD,ORAL,7,WEEK 6,42,8/7/2013 07:00,2013-06-23,,5,10
CDISCPILOT01,CM,01-704-1323,73,4,FOSAMAX,UNCODED,,UNCODED,10.000,mg,QD,ORAL,7,WEEK 6,42,8/7/2013 07:00,2013-05-09,,5,10
CDISCPILOT01,CM,01-704-1435,42,2,BENZALKONIUM CHLORIDE,UNCODED,,UNCODED,1.000,,QD,OPHTHALMIC,7,WEEK 6,42,12/29/2012 10:00,2012-08-08,,5,10
CDISCPILOT01,CM,01-708-1084,20,3,TIMOPTIC,UNCODED,,UNCODED,1.000,gtt,QD,OPHTHALMIC,7,WEEK 6,42,6/22/2013 07:00,2013-04-26,,5,10
CDISCPILOT01,CM,01-708-1178,14,1,MAXZIDE,UNCODED,,UNCODED,1.000,TABLET,QD,ORAL,7,WEEK 6,42,2/22/2014 10:00,2013-12-13,,5,10
CDISCPILOT01,CM,01-708-1216,17,2,NORVASC,AMLODIPINE,,CARDIOVASCULAR SYSTEM,5.000,mg,QD,ORAL,7,WEEK 6,42,12/5/2012 10:00,2012-10-10,,5,10
CDISCPILOT01,CM,01-708-1336,14,4,PRINIVIL,UNCODED,,UNCODED,10.000,mg,QD,ORAL,7,WEEK 6,42,1/14/2013 10:00,2011-07-15,2013-06-05,5,10
CDISCPILOT01,CM,01-709-1001,40,4,ZINC,UNCODED,PROPHYLAXIS OR NON-THERAPEUTIC USE,UNCODED,1.000,TABLET,QD,ORAL,7,WEEK 6,42,11/18/2013 10:00,2012-09-05,,5,10
CDISCPILOT01,CM,01-709-1001,44,5,ZOCOR,UNCODED,,UNCODED,10.000,mg,QD,ORAL,7,WEEK 6,42,11/18/2013 10:00,2013-07-08,,5,10
CDISCPILOT01,CM,01-709-1020,13,1,ADVIL,UNCODED,PROPHYLAXIS OR NON-THERAPEUTIC USE,UNCODED,1.000,TABLET,PRN,ORAL,7,WEEK 6,42,1/11/2013 10:00,2012-11-14,,5,10
CDISCPILOT01,CM,01-709-1312,28,2,NORVASC,AMLODIPINE,,CARDIOVASCULAR SYSTEM,5.000,mg,QD,ORAL,7,WEEK 6,42,6/1/2014 07:00,2014-03-24,,5,10
CDISCPILOT01,CM,01-710-1060,31,3,PREDNISONE,UNCODED,,UNCODED,1.000,%,QD,OPHTHALMIC,7,WEEK 6,42,2/11/2013 10:00,2012-04-18,,5,10
CDISCPILOT01,CM,01-711-1036,15,4,ALBUTEROL,UNCODED,,UNCODED,2.000,PUFF,QID,RESPIRATORY (INHALATION),7,WEEK 6,42,9/8/2012 07:00,2011-10-12,2012-10-22,5,10
CDISCPILOT01,CM,01-711-1143,16,4,SYNTHROID,UNCODED,,UNCODED,0.150,mg,QD,ORAL,7,WEEK 6,42,5/14/2013 07:00,2009-03-03,2013-05-20,5,10
CDISCPILOT01,CM,01-713-1043,14,2,IBUPROFEN,UNCODED,PROPHYLAXIS OR NON-THERAPEUTIC USE,UNCODED,400.000,mg,QD,ORAL,7,WEEK 6,42,11/1/2013 10:00,2013-06-21,,5,10
CDISCPILOT01,CM,01-713-1073,35,1,ASPIRIN (E.C.),UNCODED,,UNCODED,325.000,mg,QD,ORAL,7,WEEK 6,42,5/11/2014 07:00,2014-01-27,,5,10
CDISCPILOT01,CM,01-713-1073,34,5,VITAMIN B12,UNCODED,,UNCODED,1000.000,ug,QM,INTRAMUSCULAR,7,WEEK 6,42,5/11/2014 07:00,2013-07-20,,5,10
CDISCPILOT01,CM,01-713-1209,60,1,AXID,NIZATIDINE,,ALIMENTARY TRACT AND METABOLISM,150.000,mg,QD,ORAL,7,WEEK 6,42,7/7/2013 07:00,2013-05-09,,5,10
CDISCPILOT01,CM,01-713-1209,59,3,QUESTRAN,UNCODED,PROPHYLAXIS OR NON-THERAPEUTIC USE,UNCODED,0.500,,TID,ORAL,7,WEEK 6,42,7/7/2013 07:00,2012-10-31,,5,10
CDISCPILOT01,CM,01-713-1269,24,3,VITAMIN E,UNCODED,PROPHYLAXIS OR NON-THERAPEUTIC USE,UNCODED,1000.000,IU,BID,ORAL,7,WEEK 6,42,3/10/2014 10:00,2013-11-02,,5,10
CDISCPILOT01,CM,01-714-1068,26,1,CALCIUM,CALCIUM,,ALIMENTARY TRACT AND METABOLISM,500.000,mg,TID,ORAL,7,WEEK 6,42,9/18/2013 07:00,2012-09-25,,5,10
CDISCPILOT01,CM,01-717-1004,24,7,"HYDROCORTISONE, TOPICAL",UNCODED,,UNCODED,1.000,VIAL,QD,TOPICAL,4,WEEK 2,14,1/27/2014 10:00,2014-01-18,2014-01-24,5,11
CDISCPILOT01,CM,01-715-1397,20,1,GLUCOPHAGE,METFORMIN HYDROCHLORIDE,,ALIMENTARY TRACT AND METABOLISM,850.000,mg,TID,ORAL,7,WEEK 6,42,5/15/2013 07:00,2011-10-28,,5,10
CDISCPILOT01,CM,01-716-1026,36,4,MONOPRIL,UNCODED,,UNCODED,20.000,mg,QD,ORAL,7,WEEK 6,42,5/13/2014 07:00,2014-02-26,,5,10
CDISCPILOT01,CM,01-716-1071,35,1,CHLORAL HYDRATE,UNCODED,,UNCODED,500.000,mg,PRN,ORAL,7,WEEK 6,42,7/25/2013 07:00,2013-05-26,,5,10
CDISCPILOT01,CM,01-716-1157,80,3,CARDURA,DOXAZOSIN MESILATE,,CARDIOVASCULAR SYSTEM,2.000,mg,QD,ORAL,7,WEEK 6,42,11/11/2013 10:00,2013-09-21,,5,10
CDISCPILOT01,CM,01-716-1189,13,1,AXID,NIZATIDINE,,ALIMENTARY TRACT AND METABOLISM,75.000,mg,BID,ORAL,7,WEEK 6,42,11/26/2012 10:00,2012-09-29,,5,10
CDISCPILOT01,CM,01-716-1189,14,2,MILK OF MAGNESIA,UNCODED,PROPHYLAXIS OR NON-THERAPEUTIC USE,UNCODED,1.000,Tbsp,QD,ORAL,7,WEEK 6,42,11/26/2012 10:00,2012-09-29,,5,10
CDISCPILOT01,CM,01-717-1004,42,2,FOSAMAX,UNCODED,,UNCODED,10.000,mg,QD,ORAL,7,WEEK 6,42,2/24/2014 10:00,2013-01-26,,5,10
CDISCPILOT01,CM,01-717-1004,43,13,FUROSEMIDE,UNCODED,,UNCODED,40.000,mg,QD,ORAL,7,WEEK 6,42,2/24/2014 10:00,2013-08-20,2014-04-24,5,10
CDISCPILOT01,CM,01-717-1109,13,1,SYNTHROID,UNCODED,,UNCODED,0.100,mg,QD,ORAL,7,WEEK 6,42,3/10/2014 10:00,2012-01-13,,5,10
CDISCPILOT01,CM,01-718-1150,18,1,MULTIVITAMIN,UNCODED,PROPHYLAXIS OR NON-THERAPEUTIC USE,UNCODED,1.000,TABLET,QD,ORAL,7,WEEK 6,42,2/28/2013 10:00,2012-10-27,,5,10
CDISCPILOT01,CM,01-718-1150,17,2,VITAMIN B12,UNCODED,,UNCODED,1000.000,mg,Q4S,INTRAMUSCULAR,7,WEEK 6,42,2/28/2013 10:00,2012-06-27,,5,10
CDISCPILOT01,CM,01-701-1118,15,1,ASPIRIN,ACETYLSALICYLIC ACID,PROPHYLAXIS OR NON-THERAPEUTIC USE,NERVOUS SYSTEM,325.000,mg,PRN,ORAL,8,WEEK 8,56,5/7/2014 07:00,2000-12-10,,5,10
CDISCPILOT01,CM,01-701-1118,16,2,MULTIVITAMIN,UNCODED,PROPHYLAXIS OR NON-THERAPEUTIC USE,UNCODED,1.000,TABLET,QD,ORAL,8,WEEK 8,56,5/7/2014 07:00,2012-01-21,,5,10
CDISCPILOT01,CM,01-701-1192,16,2,MULTIVITAMINS,UNCODED,PROPHYLAXIS OR NON-THERAPEUTIC USE,UNCODED,2.000,TABLET,TID,ORAL,8,WEEK 8,56,9/22/2012 07:00,2011-05-19,,5,10
CDISCPILOT01,CM,01-701-1287,16,2,PREMARIN,ESTROGENS CONJUGATED,PROPHYLAXIS OR NON-THERAPEUTIC USE,GENITO URINARY SYSTEM AND SEX HORMONES,0.625,mg,QD,ORAL,8,WEEK 8,56,3/21/2014 10:00,2013-06-28,,5,10
CDISCPILOT01,CM,01-701-1302,40,3,METAMUCIL,UNCODED,,UNCODED,2.000,Tbsp,QD,ORAL,8,WEEK 8,56,10/21/2013 07:00,2012-03-01,,5,10
CDISCPILOT01,CM,01-701-1392,32,4,ZESTRIL,UNCODED,,UNCODED,5.000,mg,QD,ORAL,8,WEEK 8,56,12/19/2012 10:00,2011-03-17,,5,10
CDISCPILOT01,CM,01-703-1042,25,1,NORVASC,AMLODIPINE,,CARDIOVASCULAR SYSTEM,5.000,mg,QD,ORAL,8,WEEK 8,56,4/26/2013 07:00,2013-01-27,,5,10
CDISCPILOT01,CM,01-703-1076,24,2,TIMOPTIC,UNCODED,,UNCODED,1.000,gtt,EVERY NIGHT,OPHTHALMIC,8,WEEK 8,56,12/16/2013 10:00,2012-11-13,,5,10
CDISCPILOT01,CM,01-703-1100,27,3,VITAMIN B12,UNCODED,PROPHYLAXIS OR NON-THERAPEUTIC USE,UNCODED,15.000,ug,PRN,ORAL,8,WEEK 8,56,5/7/2013 07:00,2012-01-19,,5,10
CDISCPILOT01,CM,01-703-1119,24,1,NORVASC,AMLODIPINE,,CARDIOVASCULAR SYSTEM,5.000,mg,QD,ORAL,8,WEEK 8,56,4/18/2013 07:00,2013-01-20,,5,10
CDISCPILOT01,CM,01-703-1119,23,2,PREMARIN,ESTROGENS CONJUGATED,PROPHYLAXIS OR NON-THERAPEUTIC USE,GENITO URINARY SYSTEM AND SEX HORMONES,0.300,mg,QD,ORAL,8,WEEK 8,56,4/18/2013 07:00,2012-01-13,,5,10
CDISCPILOT01,CM,01-703-1119,25,3,ZOCOR,UNCODED,,UNCODED,10.000,mg,QD,ORAL,8,WEEK 8,56,4/18/2013 07:00,2013-01-20,,5,10
CDISCPILOT01,CM,01-703-1379,24,2,MONOPRIL,UNCODED,,UNCODED,10.000,mg,QD,ORAL,8,WEEK 8,56,11/16/2013 10:00,2013-06-07,,5,10
CDISCPILOT01,CM,01-704-1093,18,1,HYTRIN,UNCODED,,UNCODED,2.000,mg,QD,ORAL,8,WEEK 8,56,5/10/2013 07:00,2013-02-02,,5,10
CDISCPILOT01,CM,01-704-1127,8,1,MULTIVITAMIN,UNCODED,PROPHYLAXIS OR NON-THERAPEUTIC USE,UNCODED,1.000,TABLET,QD,ORAL,8,WEEK 8,56,11/25/2013 10:00,2010-08-11,,5,10
CDISCPILOT01,CM,01-704-1266,38,4,ZESTRIL,UNCODED,,UNCODED,5.000,mg,QD,ORAL,8,WEEK 8,56,12/5/2013 10:00,2013-06-20,,5,10
CDISCPILOT01,CM,01-704-1435,48,2,BENZALKONIUM CHLORIDE,UNCODED,,UNCODED,1.000,,QD,OPHTHALMIC,8,WEEK 8,56,1/11/2013 10:00,2012-08-08,,5,10
CDISCPILOT01,CM,01-708-1084,23,3,TIMOPTIC,UNCODED,,UNCODED,1.000,gtt,QD,OPHTHALMIC,8,WEEK 8,56,7/6/2013 07:00,2013-04-26,,5,10
CDISCPILOT01,CM,01-708-1178,16,1,MAXZIDE,UNCODED,,UNCODED,1.000,TABLET,QD,ORAL,8,WEEK 8,56,3/8/2014 10:00,2013-12-13,,5,10
CDISCPILOT01,CM,01-708-1336,16,4,PRINIVIL,UNCODED,,UNCODED,10.000,mg,QD,ORAL,8,WEEK 8,56,1/28/2013 10:00,2011-07-15,2013-06-05,5,10
CDISCPILOT01,CM,01-709-1001,46,4,ZINC,UNCODED,PROPHYLAXIS OR NON-THERAPEUTIC USE,UNCODED,1.000,TABLET,QD,ORAL,8,WEEK 8,56,12/2/2013 10:00,2012-09-05,,5,10
CDISCPILOT01,CM,01-709-1001,50,5,ZOCOR,UNCODED,,UNCODED,10.000,mg,QD,ORAL,8,WEEK 8,56,12/2/2013 10:00,2013-07-08,,5,10
CDISCPILOT01,CM,01-709-1020,18,1,ADVIL,UNCODED,PROPHYLAXIS OR NON-THERAPEUTIC USE,UNCODED,1.000,TABLET,PRN,ORAL,8,WEEK 8,56,1/25/2013 10:00,2012-11-14,,5,10
CDISCPILOT01,CM,01-709-1312,32,2,NORVASC,AMLODIPINE,,CARDIOVASCULAR SYSTEM,5.000,mg,QD,ORAL,8,WEEK 8,56,6/12/2014 07:00,2014-03-24,,5,10
CDISCPILOT01,CM,01-710-1060,36,3,PREDNISONE,UNCODED,,UNCODED,1.000,%,QD,OPHTHALMIC,8,WEEK 8,56,2/25/2013 10:00,2012-04-18,,5,10
CDISCPILOT01,CM,01-711-1036,17,4,ALBUTEROL,UNCODED,,UNCODED,2.000,PUFF,QID,RESPIRATORY (INHALATION),8,WEEK 8,56,9/22/2012 07:00,2011-10-12,2012-10-22,5,10
CDISCPILOT01,CM,01-711-1143,19,4,SYNTHROID,UNCODED,,UNCODED,0.150,mg,QD,ORAL,8,WEEK 8,56,5/27/2013 07:00,2009-03-03,2013-05-20,5,10
CDISCPILOT01,CM,01-713-1043,17,2,IBUPROFEN,UNCODED,PROPHYLAXIS OR NON-THERAPEUTIC USE,UNCODED,400.000,mg,QD,ORAL,8,WEEK 8,56,11/10/2013 10:00,2013-06-21,,5,10
CDISCPILOT01,CM,01-713-1073,40,1,ASPIRIN (E.C.),UNCODED,,UNCODED,325.000,mg,QD,ORAL,8,WEEK 8,56,5/24/2014 07:00,2014-01-27,,5,10
CDISCPILOT01,CM,01-713-1073,39,5,VITAMIN B12,UNCODED,,UNCODED,1000.000,ug,QM,INTRAMUSCULAR,8,WEEK 8,56,5/24/2014 07:00,2013-07-20,,5,10
CDISCPILOT01,CM,01-713-1209,70,1,AXID,NIZATIDINE,,ALIMENTARY TRACT AND METABOLISM,150.000,mg,QD,ORAL,8,WEEK 8,56,7/21/2013 07:00,2013-05-09,,5,10
CDISCPILOT01,CM,01-713-1209,69,3,QUESTRAN,UNCODED,PROPHYLAXIS OR NON-THERAPEUTIC USE,UNCODED,0.500,,TID,ORAL,8,WEEK 8,56,7/21/2013 07:00,2012-10-31,,5,10
CDISCPILOT01,CM,01-713-1269,28,3,VITAMIN E,UNCODED,PROPHYLAXIS OR NON-THERAPEUTIC USE,UNCODED,1000.000,IU,BID,ORAL,8,WEEK 8,56,3/23/2014 10:00,2013-11-02,,5,10
CDISCPILOT01,CM,01-714-1068,30,1,CALCIUM,CALCIUM,,ALIMENTARY TRACT AND METABOLISM,500.000,mg,TID,ORAL,8,WEEK 8,56,10/2/2013 07:00,2012-09-25,,5,10
CDISCPILOT01,CM,01-715-1397,23,1,GLUCOPHAGE,METFORMIN HYDROCHLORIDE,,ALIMENTARY TRACT AND METABOLISM,850.000,mg,TID,ORAL,8,WEEK 8,56,5/28/2013 07:00,2011-10-28,,5,10
CDISCPILOT01,CM,01-716-1026,41,4,MONOPRIL,UNCODED,,UNCODED,20.000,mg,QD,ORAL,8,WEEK 8,56,5/28/2014 07:00,2014-02-26,,5,10
CDISCPILOT01,CM,01-716-1071,40,1,CHLORAL HYDRATE,UNCODED,,UNCODED,500.000,mg,PRN,ORAL,8,WEEK 8,56,7/31/2013 07:00,2013-05-26,,5,10
CDISCPILOT01,CM,01-716-1157,92,3,CARDURA,DOXAZOSIN MESILATE,,CARDIOVASCULAR SYSTEM,2.000,mg,QD,ORAL,8,WEEK 8,56,11/25/2013 10:00,2013-09-21,,5,10
CDISCPILOT01,CM,01-716-1189,15,1,AXID,NIZATIDINE,,ALIMENTARY TRACT AND METABOLISM,75.000,mg,BID,ORAL,8,WEEK 8,56,12/7/2012 10:00,2012-09-29,,5,10
CDISCPILOT01,CM,01-716-1189,16,2,MILK OF MAGNESIA,UNCODED,PROPHYLAXIS OR NON-THERAPEUTIC USE,UNCODED,1.000,Tbsp,QD,ORAL,8,WEEK 8,56,12/7/2012 10:00,2012-09-29,,5,10
CDISCPILOT01,CM,01-717-1004,47,2,FOSAMAX,UNCODED,,UNCODED,10.000,mg,QD,ORAL,8,WEEK 8,56,3/11/2014 10:00,2013-01-26,,5,10
CDISCPILOT01,CM,01-717-1004,48,13,FUROSEMIDE,UNCODED,,UNCODED,40.000,mg,QD,ORAL,8,WEEK 8,56,3/11/2014 10:00,2013-08-20,2014-04-24,5,10
CDISCPILOT01,CM,01-717-1109,16,1,SYNTHROID,UNCODED,,UNCODED,0.100,mg,QD,ORAL,8,WEEK 8,56,3/24/2014 10:00,2012-01-13,,5,10
CDISCPILOT01,CM,01-718-1150,20,1,MULTIVITAMIN,UNCODED,PROPHYLAXIS OR NON-THERAPEUTIC USE,UNCODED,1.000,TABLET,QD,ORAL,8,WEEK 8,56,3/17/2013 10:00,2012-10-27,,5,10
CDISCPILOT01,CM,01-718-1150,19,2,VITAMIN B12,UNCODED,,UNCODED,1000.000,mg,Q4S,INTRAMUSCULAR,8,WEEK 8,56,3/17/2013 10:00,2012-06-27,,5,10
CDISCPILOT01,CM,01-704-1266,18,6,"HYDROCORTISONE, TOPICAL",UNCODED,,UNCODED,2.500,%,PRN,TOPICAL,4,WEEK 2,14,10/26/2013 07:00,2013-10-18,,6,10
CDISCPILOT01,CM,01-704-1266,23,6,"HYDROCORTISONE, TOPICAL",UNCODED,,UNCODED,2.500,%,PRN,TOPICAL,5,WEEK 4,28,11/7/2013 10:00,2013-10-18,,6,7
CDISCPILOT01,CM,01-704-1266,28,6,"HYDROCORTISONE, TOPICAL",UNCODED,,UNCODED,2.500,%,PRN,TOPICAL,6,AMBUL ECG REMOVAL,30,11/9/2013 10:00,2013-10-18,,6,7
CDISCPILOT01,CM,01-704-1266,33,6,"HYDROCORTISONE, TOPICAL",UNCODED,,UNCODED,2.500,%,PRN,TOPICAL,7,WEEK 6,42,11/21/2013 10:00,2013-10-18,,6,7
CDISCPILOT01,CM,01-704-1266,39,6,"HYDROCORTISONE, TOPICAL",UNCODED,,UNCODED,2.500,%,PRN,TOPICAL,8,WEEK 8,56,12/5/2013 10:00,2013-10-18,,6,10
CDISCPILOT01,CM,01-704-1266,45,6,"HYDROCORTISONE, TOPICAL",UNCODED,,UNCODED,2.500,%,PRN,TOPICAL,101,AE FOLLOW-UP,,1/2/2014 10:00,2013-10-18,,6,10
CDISCPILOT01,CM,01-708-1342,29,7,NORVASC,AMLODIPINE,,CARDIOVASCULAR SYSTEM,5.000,mg,QD,ORAL,4,WEEK 2,14,1/11/2013 10:00,2013-01-03,,6,10
CDISCPILOT01,CM,01-708-1342,37,7,NORVASC,AMLODIPINE,,CARDIOVASCULAR SYSTEM,5.000,mg,QD,ORAL,5,WEEK 4,28,1/23/2013 10:00,2013-01-03,,6,10
CDISCPILOT01,CM,01-708-1342,45,7,NORVASC,AMLODIPINE,,CARDIOVASCULAR SYSTEM,5.000,mg,QD,ORAL,6,AMBUL ECG REMOVAL,30,1/25/2013 10:00,2013-01-03,,6,10
CDISCPILOT01,CM,01-708-1342,53,7,NORVASC,AMLODIPINE,,CARDIOVASCULAR SYSTEM,5.000,mg,QD,ORAL,7,WEEK 6,42,2/6/2013 10:00,2013-01-03,,6,10
CDISCPILOT01,CM,01-708-1342,62,7,NORVASC,AMLODIPINE,,CARDIOVASCULAR SYSTEM,5.000,mg,QD,ORAL,8,WEEK 8,56,2/22/2013 10:00,2013-01-03,,6,10
CDISCPILOT01,CM,01-708-1342,71,7,NORVASC,AMLODIPINE,,CARDIOVASCULAR SYSTEM,5.000,mg,QD,ORAL,9,WEEK 12,84,3/21/2013 10:00,2013-01-03,,6,10
CDISCPILOT01,CM,01-708-1342,80,7,NORVASC,AMLODIPINE,,CARDIOVASCULAR SYSTEM,5.000,mg,QD,ORAL,10,WEEK 16,112,4/19/2013 07:00,2013-01-03,,6,10
CDISCPILOT01,CM,01-708-1342,90,7,NORVASC,AMLODIPINE,,CARDIOVASCULAR SYSTEM,5.000,mg,QD,ORAL,11,WEEK 20,140,5/17/2013 07:00,2013-01-03,,6,10
CDISCPILOT01,CM,01-708-1342,99,7,NORVASC,AMLODIPINE,,CARDIOVASCULAR SYSTEM,5.000,mg,QD,ORAL,12,WEEK 24,168,6/14/2013 07:00,2013-01-03,,6,10
CDISCPILOT01,CM,01-708-1342,108,7,NORVASC,AMLODIPINE,,CARDIOVASCULAR SYSTEM,5.000,mg,QD,ORAL,13,WEEK 26,182,6/27/2013 07:00,2013-01-03,,6,10
CDISCPILOT01,CM,01-708-1342,30,8,TYLENOL SINUS,UNCODED,,UNCODED,60.000,mg,PRN,ORAL,4,WEEK 2,14,1/11/2013 10:00,2013-01-03,,6,10
CDISCPILOT01,CM,01-708-1342,38,8,TYLENOL SINUS,UNCODED,,UNCODED,60.000,mg,PRN,ORAL,5,WEEK 4,28,1/23/2013 10:00,2013-01-03,,6,10
CDISCPILOT01,CM,01-708-1342,46,8,TYLENOL SINUS,UNCODED,,UNCODED,60.000,mg,PRN,ORAL,6,AMBUL ECG REMOVAL,30,1/25/2013 10:00,2013-01-03,,6,10
CDISCPILOT01,CM,01-708-1342,54,8,TYLENOL SINUS,UNCODED,,UNCODED,60.000,mg,PRN,ORAL,7,WEEK 6,42,2/6/2013 10:00,2013-01-03,,6,10
CDISCPILOT01,CM,01-708-1342,63,8,TYLENOL SINUS,UNCODED,,UNCODED,60.000,mg,PRN,ORAL,8,WEEK 8,56,2/22/2013 10:00,2013-01-03,,6,10
CDISCPILOT01,CM,01-708-1342,72,8,TYLENOL SINUS,UNCODED,,UNCODED,60.000,mg,PRN,ORAL,9,WEEK 12,84,3/21/2013 10:00,2013-01-03,,6,7
CDISCPILOT01,CM,01-708-1342,81,8,TYLENOL SINUS,UNCODED,,UNCODED,60.000,mg,PRN,ORAL,10,WEEK 16,112,4/19/2013 07:00,2013-01-03,,6,7
CDISCPILOT01,CM,01-708-1342,91,8,TYLENOL SINUS,UNCODED,,UNCODED,60.000,mg,PRN,ORAL,11,WEEK 20,140,5/17/2013 07:00,2013-01-03,,6,7
CDISCPILOT01,CM,01-708-1342,100,8,TYLENOL SINUS,UNCODED,,UNCODED,60.000,mg,PRN,ORAL,12,WEEK 24,168,6/14/2013 07:00,2013-01-03,,6,7
CDISCPILOT01,CM,01-708-1342,109,8,TYLENOL SINUS,UNCODED,,UNCODED,60.000,mg,PRN,ORAL,13,WEEK 26,182,6/27/2013 07:00,2013-01-03,,6,7
CDISCPILOT01,CM,01-701-1211,1,1,DEMEROL,UNCODED,,UNCODED,50.000,mg,ONCE,INTRAVENOUS,4,WEEK 2,14,11/27/2012 10:00,2012-11-21,2012-11-21,7,7
CDISCPILOT01,CM,01-701-1211,2,2,TYLENOL W/CODEINE NO. 3,UNCODED,,UNCODED,2.000,TABLET,ONCE,ORAL,4,WEEK 2,14,11/27/2012 10:00,2012-11-21,2012-11-21,7,7
CDISCPILOT01,CM,01-704-1010,21,6,CIPRO,UNCODED,,UNCODED,500.000,mg,BID,ORAL,4,WEEK 2,14,3/7/2014 10:00,2014-02-27,2014-03-06,7,14
CDISCPILOT01,CM,01-711-1036,7,2,BACTRIM,UNCODED,,UNCODED,1.000,TABLET,BID,ORAL,4,WEEK 2,14,8/11/2012 07:00,2012-08-04,2012-08-12,7,15
CDISCPILOT01,CM,01-711-1036,11,2,BACTRIM,UNCODED,,UNCODED,1.000,TABLET,BID,ORAL,5,WEEK 4,28,8/28/2012 07:00,2012-08-04,2012-08-12,7,15
CDISCPILOT01,CM,01-711-1036,8,3,GUAIFENESIN,GUAIFENESIN,,RESPIRATORY SYSTEM,600.000,mg,BID,ORAL,4,WEEK 2,14,8/11/2012 07:00,2012-08-04,2012-08-12,7,15
CDISCPILOT01,CM,01-711-1036,12,3,GUAIFENESIN,GUAIFENESIN,,RESPIRATORY SYSTEM,600.000,mg,BID,ORAL,5,WEEK 4,28,8/28/2012 07:00,2012-08-04,2012-08-12,7,15
CDISCPILOT01,CM,01-710-1270,13,4,BENADRYL,UNCODED,,UNCODED,1.000,cm,PRN,TOPICAL,4,WEEK 2,14,2/28/2014 10:00,2014-02-19,2014-03-01,8,18
CDISCPILOT01,CM,01-710-1270,17,4,BENADRYL,UNCODED,,UNCODED,1.000,cm,PRN,TOPICAL,101,AE FOLLOW-UP,,3/26/2014 10:00,2014-02-19,2014-03-01,8,18
CDISCPILOT01,CM,01-710-1053,17,5,PREMARIN VAGINAL CREAM,UNCODED,PROPHYLAXIS OR NON-THERAPEUTIC USE,UNCODED,42.500,mg,QD,VAGINAL,4,WEEK 2,14,1/8/2013 10:00,2013-01-03,,9,10
CDISCPILOT01,CM,01-710-1053,22,5,PREMARIN VAGINAL CREAM,UNCODED,PROPHYLAXIS OR NON-THERAPEUTIC USE,UNCODED,42.500,mg,QD,VAGINAL,5,WEEK 4,28,1/23/2013 10:00,2013-01-03,,9,10
CDISCPILOT01,CM,01-710-1053,27,5,PREMARIN VAGINAL CREAM,UNCODED,PROPHYLAXIS OR NON-THERAPEUTIC USE,UNCODED,42.500,mg,QD,VAGINAL,6,AMBUL ECG REMOVAL,30,1/25/2013 10:00,2013-01-03,,9,10
CDISCPILOT01,CM,01-710-1053,32,5,PREMARIN VAGINAL CREAM,UNCODED,PROPHYLAXIS OR NON-THERAPEUTIC USE,UNCODED,42.500,mg,QD,VAGINAL,7,WEEK 6,42,2/5/2013 10:00,2013-01-03,,9,10
CDISCPILOT01,CM,01-710-1053,39,5,PREMARIN VAGINAL CREAM,UNCODED,PROPHYLAXIS OR NON-THERAPEUTIC USE,UNCODED,42.500,mg,QD,VAGINAL,8,WEEK 8,56,2/14/2013 10:00,2013-01-03,,9,10
CDISCPILOT01,CM,01-710-1053,45,5,PREMARIN VAGINAL CREAM,UNCODED,PROPHYLAXIS OR NON-THERAPEUTIC USE,UNCODED,42.500,mg,QD,VAGINAL,101,AE FOLLOW-UP,,2/25/2013 10:00,2013-01-03,,9,10
CDISCPILOT01,CM,01-711-1433,14,4,MAXZIDE,UNCODED,,UNCODED,1.000,TABLET,QD,ORAL,4,WEEK 2,14,2/5/2013 10:00,2013-02-04,2013-02-06,9,11
CDISCPILOT01,CM,01-708-1336,34,4,PRINIVIL,UNCODED,,UNCODED,10.000,mg,QD,ORAL,101,AE FOLLOW-UP,,7/4/2013 07:00,2011-07-15,2013-06-05,10,181
CDISCPILOT01,CM,01-711-1012,17,2,DYAZIDE,UNCODED,,UNCODED,37.500,mg,QD,ORAL,101,AE FOLLOW-UP,,7/16/2013 07:00,2013-03-02,,10,12
CDISCPILOT01,CM,01-714-1068,40,1,CALCIUM,CALCIUM,,ALIMENTARY TRACT AND METABOLISM,500.000,mg,TID,ORAL,101,AE FOLLOW-UP,,10/22/2013 07:00,2012-09-25,,10,12
CDISCPILOT01,CM,01-716-1071,45,1,CHLORAL HYDRATE,UNCODED,,UNCODED,500.000,mg,PRN,ORAL,101,AE FOLLOW-UP,,7/31/2013 07:00,2013-05-26,,10,12
CDISCPILOT01,CM,01-716-1189,27,1,AXID,NIZATIDINE,,ALIMENTARY TRACT AND METABOLISM,75.000,mg,BID,ORAL,101,AE FOLLOW-UP,,3/2/2013 10:00,2012-09-29,,10,12
CDISCPILOT01,CM,01-716-1189,28,2,MILK OF MAGNESIA,UNCODED,PROPHYLAXIS OR NON-THERAPEUTIC USE,UNCODED,1.000,Tbsp,QD,ORAL,101,AE FOLLOW-UP,,3/2/2013 10:00,2012-09-29,,10,12
CDISCPILOT01,CM,01-706-1041,14,5,ATIVAN,UNCODED,,UNCODED,1.000,mg,PRN,ORAL,4,WEEK 2,14,1/13/2014 10:00,2014-01-09,,10,15
CDISCPILOT01,CM,01-706-1041,18,5,ATIVAN,UNCODED,,UNCODED,1.000,mg,PRN,ORAL,5,WEEK 4,28,1/27/2014 10:00,2014-01-09,,10,15
CDISCPILOT01,CM,01-706-1041,22,5,ATIVAN,UNCODED,,UNCODED,1.000,mg,PRN,ORAL,6,AMBUL ECG REMOVAL,30,1/29/2014 10:00,2014-01-09,,10,15
CDISCPILOT01,CM,01-706-1041,26,5,ATIVAN,UNCODED,,UNCODED,1.000,mg,PRN,ORAL,7,WEEK 6,42,2/10/2014 10:00,2014-01-09,,10,15
CDISCPILOT01,CM,01-706-1041,30,5,ATIVAN,UNCODED,,UNCODED,1.000,mg,PRN,ORAL,8,WEEK 8,56,3/3/2014 10:00,2014-01-09,,10,15
CDISCPILOT01,CM,01-706-1041,35,5,ATIVAN,UNCODED,,UNCODED,1.000,mg,PRN,ORAL,9,WEEK 12,84,3/31/2014 07:00,2014-01-09,,10,15
CDISCPILOT01,CM,01-706-1041,40,5,ATIVAN,UNCODED,,UNCODED,1.000,mg,PRN,ORAL,10,WEEK 16,112,5/5/2014 07:00,2014-01-09,,10,15
CDISCPILOT01,CM,01-706-1041,45,5,ATIVAN,UNCODED,,UNCODED,1.000,mg,PRN,ORAL,11,WEEK 20,140,6/9/2014 07:00,2014-01-09,,10,15
CDISCPILOT01,CM,01-706-1041,50,5,ATIVAN,UNCODED,,UNCODED,1.000,mg,PRN,ORAL,12,WEEK 24,168,7/14/2014 07:00,2014-01-09,,10,15
CDISCPILOT01,CM,01-706-1041,55,5,ATIVAN,UNCODED,,UNCODED,1.000,mg,PRN,ORAL,13,WEEK 26,182,7/28/2014 07:00,2014-01-09,,10,15
CDISCPILOT01,CM,01-709-1259,9,3,KEFLEX,UNCODED,,UNCODED,500.000,mg,QD,ORAL,4,WEEK 2,14,2/9/2013 10:00,2013-02-05,2013-02-13,11,19
CDISCPILOT01,CM,01-709-1259,12,3,KEFLEX,UNCODED,,UNCODED,500.000,mg,QD,ORAL,5,WEEK 4,28,2/21/2013 10:00,2013-02-05,2013-02-13,11,19
CDISCPILOT01,CM,01-704-1164,9,3,GUIATUSS,UNCODED,,UNCODED,1.000,tsp,TID,ORAL,4,WEEK 2,14,10/3/2012 07:00,2012-09-30,2012-10-07,12,19
CDISCPILOT01,CM,01-704-1164,13,3,GUIATUSS,UNCODED,,UNCODED,1.000,tsp,TID,ORAL,5,WEEK 4,28,10/20/2012 07:00,2012-09-30,2012-10-07,12,19
CDISCPILOT01,CM,01-704-1164,10,4,TRIMOX,UNCODED,,UNCODED,500.000,mg,TID,ORAL,4,WEEK 2,14,10/3/2012 07:00,2012-09-30,2012-10-07,12,19
CDISCPILOT01,CM,01-704-1164,14,4,TRIMOX,UNCODED,,UNCODED,500.000,mg,TID,ORAL,5,WEEK 4,28,10/20/2012 07:00,2012-09-30,2012-10-07,12,19
CDISCPILOT01,CM,01-710-1060,18,6,DALMANE,UNCODED,,UNCODED,15.000,mg,EVERY NIGHT,ORAL,4,WEEK 2,14,1/14/2013 10:00,2013-01-12,2013-01-15,12,15
CDISCPILOT01,CM,01-710-1060,23,6,DALMANE,UNCODED,,UNCODED,15.000,mg,EVERY NIGHT,ORAL,5,WEEK 4,28,1/31/2013 10:00,2013-01-12,2013-01-15,12,15
CDISCPILOT01,CM,01-717-1004,25,8,CEFTIN,UNCODED,,UNCODED,250.000,mg,BID,ORAL,4,WEEK 2,14,1/27/2014 10:00,2014-01-25,2014-02-04,12,22
CDISCPILOT01,CM,01-717-1004,31,8,CEFTIN,UNCODED,,UNCODED,250.000,mg,BID,ORAL,5,WEEK 4,28,2/8/2014 10:00,2014-01-25,2014-02-04,12,22
CDISCPILOT01,CM,01-718-1066,13,4,ATIVAN,UNCODED,,UNCODED,0.500,mg,ONCE,ORAL,4,WEEK 2,14,7/29/2013 07:00,2013-07-18,2013-07-18,12,12
CDISCPILOT01,CM,01-708-1019,1,1,ASPIRIN,ACETYLSALICYLIC ACID,,NERVOUS SYSTEM,325.000,mg,QD,ORAL,4,WEEK 2,14,1/22/2014 10:00,2014-01-01,,13,20
CDISCPILOT01,CM,01-709-1099,13,5,PERTUSSIN SYRUP,UNCODED,,UNCODED,1.000,Tbsp,PRN,ORAL,4,WEEK 2,14,11/11/2013 10:00,2013-11-06,2013-11-17,13,24
CDISCPILOT01,CM,01-709-1099,18,5,PERTUSSIN SYRUP,UNCODED,,UNCODED,1.000,Tbsp,PRN,ORAL,5,WEEK 4,28,11/26/2013 10:00,2013-11-06,2013-11-17,13,24
CDISCPILOT01,CM,01-709-1099,14,6,TYLENOL,UNCODED,,UNCODED,1.000,TABLET,PRN,ORAL,4,WEEK 2,14,11/11/2013 10:00,2013-11-06,2013-11-17,13,24
CDISCPILOT01,CM,01-709-1099,19,6,TYLENOL,UNCODED,,UNCODED,1.000,TABLET,PRN,ORAL,5,WEEK 4,28,11/26/2013 10:00,2013-11-06,2013-11-17,13,24
CDISCPILOT01,CM,01-717-1174,1,1,"HYDROCORTISONE, TOPICAL",UNCODED,,UNCODED,1.000,VIAL,PRN,TOPICAL,4,WEEK 2,14,2/3/2013 10:00,2013-02-03,,13,14
CDISCPILOT01,CM,01-717-1174,2,1,"HYDROCORTISONE, TOPICAL",UNCODED,,UNCODED,1.000,VIAL,PRN,TOPICAL,5,WEEK 4,28,2/17/2013 10:00,2013-02-03,,13,15
CDISCPILOT01,CM,01-717-1174,3,1,"HYDROCORTISONE, TOPICAL",UNCODED,,UNCODED,1.000,VIAL,PRN,TOPICAL,6,AMBUL ECG REMOVAL,30,2/19/2013 10:00,2013-02-03,,13,15
CDISCPILOT01,CM,01-717-1174,6,1,"HYDROCORTISONE, TOPICAL",UNCODED,,UNCODED,1.000,VIAL,PRN,TOPICAL,7,WEEK 6,42,3/3/2013 10:00,2013-02-03,,13,15
CDISCPILOT01,CM,01-717-1174,9,1,"HYDROCORTISONE, TOPICAL",UNCODED,,UNCODED,1.000,VIAL,PRN,TOPICAL,8,WEEK 8,56,3/19/2013 10:00,2013-02-03,,13,15
CDISCPILOT01,CM,01-717-1174,12,1,"HYDROCORTISONE, TOPICAL",UNCODED,,UNCODED,1.000,VIAL,PRN,TOPICAL,9,WEEK 12,84,4/14/2013 07:00,2013-02-03,,13,15
CDISCPILOT01,CM,01-717-1174,15,1,"HYDROCORTISONE, TOPICAL",UNCODED,,UNCODED,1.000,VIAL,PRN,TOPICAL,10,WEEK 16,112,5/17/2013 07:00,2013-02-03,,13,15
CDISCPILOT01,CM,01-717-1174,17,1,"HYDROCORTISONE, TOPICAL",UNCODED,,UNCODED,1.000,VIAL,PRN,TOPICAL,11,WEEK 20,140,6/11/2013 07:00,2013-02-03,,13,15
CDISCPILOT01,CM,01-717-1174,18,1,"HYDROCORTISONE, TOPICAL",UNCODED,,UNCODED,1.000,VIAL,PRN,TOPICAL,12,WEEK 24,168,7/6/2013 07:00,2013-02-03,,13,15
CDISCPILOT01,CM,01-717-1174,19,1,"HYDROCORTISONE, TOPICAL",UNCODED,,UNCODED,1.000,VIAL,PRN,TOPICAL,13,WEEK 26,182,7/23/2013 07:00,2013-02-03,,13,15
CDISCPILOT01,CM,01-718-1066,14,6,ATIVAN,UNCODED,,UNCODED,2.000,mg,ONCE,ORAL,4,WEEK 2,14,7/29/2013 07:00,2013-07-19,2013-07-19,13,13
CDISCPILOT01,CM,01-703-1086,1,2,CORTISONE,UNCODED,,UNCODED,1.000,%,PRN,TOPICAL,4,WEEK 2,14,9/15/2012 07:00,2012-09-15,2012-12-13,14,103
CDISCPILOT01,CM,01-703-1086,2,2,CORTISONE,UNCODED,,UNCODED,1.000,%,PRN,TOPICAL,5,WEEK 4,28,9/29/2012 07:00,2012-09-15,2012-12-13,14,103
CDISCPILOT01,CM,01-703-1086,5,2,CORTISONE,UNCODED,,UNCODED,1.000,%,PRN,TOPICAL,6,AMBUL ECG REMOVAL,30,10/1/2012 07:00,2012-09-15,2012-12-13,14,103
CDISCPILOT01,CM,01-703-1086,8,2,CORTISONE,UNCODED,,UNCODED,1.000,%,PRN,TOPICAL,7,WEEK 6,42,10/12/2012 07:00,2012-09-15,2012-12-13,14,103
CDISCPILOT01,CM,01-703-1086,11,2,CORTISONE,UNCODED,,UNCODED,1.000,%,PRN,TOPICAL,8,WEEK 8,56,10/26/2012 07:00,2012-09-15,2012-12-13,14,103
CDISCPILOT01,CM,01-703-1086,14,2,CORTISONE,UNCODED,,UNCODED,1.000,%,PRN,TOPICAL,9,WEEK 12,84,11/26/2012 10:00,2012-09-15,2012-12-13,14,103
CDISCPILOT01,CM,01-703-1086,17,2,CORTISONE,UNCODED,,UNCODED,1.000,%,PRN,TOPICAL,10,WEEK 16,112,12/23/2012 10:00,2012-09-15,2012-12-13,14,103
CDISCPILOT01,CM,01-705-1431,9,3,CORTISONE,UNCODED,,UNCODED,1.000,,PRN,TOPICAL,4,WEEK 2,14,7/6/2013 07:00,2013-07-06,,14,20
CDISCPILOT01,CM,01-705-1431,12,3,CORTISONE,UNCODED,,UNCODED,1.000,,PRN,TOPICAL,5,WEEK 4,28,7/19/2013 07:00,2013-07-06,,14,15
CDISCPILOT01,CM,01-705-1431,15,3,CORTISONE,UNCODED,,UNCODED,1.000,,PRN,TOPICAL,6,AMBUL ECG REMOVAL,30,7/21/2013 07:00,2013-07-06,,14,15
CDISCPILOT01,CM,01-705-1431,18,3,CORTISONE,UNCODED,,UNCODED,1.000,,PRN,TOPICAL,7,WEEK 6,42,8/6/2013 07:00,2013-07-06,,14,15
CDISCPILOT01,CM,01-705-1431,21,3,CORTISONE,UNCODED,,UNCODED,1.000,,PRN,TOPICAL,8,WEEK 8,56,8/20/2013 07:00,2013-07-06,,14,15
CDISCPILOT01,CM,01-705-1431,24,3,CORTISONE,UNCODED,,UNCODED,1.000,,PRN,TOPICAL,9,WEEK 12,84,9/17/2013 07:00,2013-07-06,,14,15
CDISCPILOT01,CM,01-705-1431,27,3,CORTISONE,UNCODED,,UNCODED,1.000,,PRN,TOPICAL,10,WEEK 16,112,10/16/2013 07:00,2013-07-06,,14,15
CDISCPILOT01,CM,01-705-1431,30,3,CORTISONE,UNCODED,,UNCODED,1.000,,PRN,TOPICAL,11,WEEK 20,140,11/12/2013 10:00,2013-07-06,,14,15
CDISCPILOT01,CM,01-705-1431,33,3,CORTISONE,UNCODED,,UNCODED,1.000,,PRN,TOPICAL,12,WEEK 24,168,12/4/2013 10:00,2013-07-06,,14,15
CDISCPILOT01,CM,01-705-1431,36,3,CORTISONE,UNCODED,,UNCODED,1.000,,PRN,TOPICAL,13,WEEK 26,182,12/18/2013 10:00,2013-07-06,,14,15
CDISCPILOT01,CM,01-716-1229,23,7,CHLORAL HYDRATE,UNCODED,,UNCODED,500.000,mg,EVERY NIGHT,ORAL,4,WEEK 2,14,3/5/2013 10:00,2013-03-05,,14,15
CDISCPILOT01,CM,01-716-1229,31,7,CHLORAL HYDRATE,UNCODED,,UNCODED,500.000,mg,EVERY NIGHT,ORAL,5,WEEK 4,28,3/18/2013 10:00,2013-03-05,,14,15
CDISCPILOT01,CM,01-716-1229,39,7,CHLORAL HYDRATE,UNCODED,,UNCODED,500.000,mg,EVERY NIGHT,ORAL,6,AMBUL ECG REMOVAL,30,3/19/2013 10:00,2013-03-05,,14,17
CDISCPILOT01,CM,01-716-1229,47,7,CHLORAL HYDRATE,UNCODED,,UNCODED,500.000,mg,EVERY NIGHT,ORAL,7,WEEK 6,42,4/1/2013 07:00,2013-03-05,,14,17
CDISCPILOT01,CM,01-716-1229,55,7,CHLORAL HYDRATE,UNCODED,,UNCODED,500.000,mg,EVERY NIGHT,ORAL,101,AE FOLLOW-UP,,4/1/2013 07:00,2013-03-05,,14,17
CDISCPILOT01,CM,01-716-1229,24,8,ZOCOR,UNCODED,,UNCODED,10.000,mg,QD,ORAL,4,WEEK 2,14,3/5/2013 10:00,2013-03-05,,14,17
CDISCPILOT01,CM,01-716-1229,32,8,ZOCOR,UNCODED,,UNCODED,10.000,mg,QD,ORAL,5,WEEK 4,28,3/18/2013 10:00,2013-03-05,,14,17
CDISCPILOT01,CM,01-716-1229,40,8,ZOCOR,UNCODED,,UNCODED,10.000,mg,QD,ORAL,6,AMBUL ECG REMOVAL,30,3/19/2013 10:00,2013-03-05,,14,17
CDISCPILOT01,CM,01-716-1229,48,8,ZOCOR,UNCODED,,UNCODED,10.000,mg,QD,ORAL,7,WEEK 6,42,4/1/2013 07:00,2013-03-05,,14,17
CDISCPILOT01,CM,01-716-1229,56,8,ZOCOR,UNCODED,,UNCODED,10.000,mg,QD,ORAL,101,AE FOLLOW-UP,,4/1/2013 07:00,2013-03-05,,14,17
CDISCPILOT01,CM,01-716-1418,1,1,CORTISONE,UNCODED,,UNCODED,1.000,%,PRN,TOPICAL,4,WEEK 2,14,5/18/2013 07:00,2013-05-18,,14,17
CDISCPILOT01,CM,01-716-1418,2,1,CORTISONE,UNCODED,,UNCODED,1.000,%,PRN,TOPICAL,5,WEEK 4,28,6/4/2013 07:00,2013-05-18,,14,17
CDISCPILOT01,CM,01-716-1418,3,1,CORTISONE,UNCODED,,UNCODED,1.000,%,PRN,TOPICAL,6,AMBUL ECG REMOVAL,30,6/7/2013 07:00,2013-05-18,,14,17
CDISCPILOT01,CM,01-716-1418,4,1,CORTISONE,UNCODED,,UNCODED,1.000,%,PRN,TOPICAL,7,WEEK 6,42,6/21/2013 07:00,2013-05-18,,14,17
CDISCPILOT01,CM,01-716-1418,5,1,CORTISONE,UNCODED,,UNCODED,1.000,%,PRN,TOPICAL,8,WEEK 8,56,7/10/2013 07:00,2013-05-18,,14,17
CDISCPILOT01,CM,01-716-1418,6,1,CORTISONE,UNCODED,,UNCODED,1.000,%,PRN,TOPICAL,9,WEEK 12,84,8/2/2013 07:00,2013-05-18,,14,20
CDISCPILOT01,CM,01-716-1418,7,1,CORTISONE,UNCODED,,UNCODED,1.000,%,PRN,TOPICAL,10,WEEK 16,112,9/4/2013 07:00,2013-05-18,,14,20
CDISCPILOT01,CM,01-716-1418,8,1,CORTISONE,UNCODED,,UNCODED,1.000,%,PRN,TOPICAL,11,WEEK 20,140,10/4/2013 07:00,2013-05-18,,14,20
CDISCPILOT01,CM,01-716-1418,9,1,CORTISONE,UNCODED,,UNCODED,1.000,%,PRN,TOPICAL,12,WEEK 24,168,11/5/2013 10:00,2013-05-18,,14,20
CDISCPILOT01,CM,01-716-1418,10,1,CORTISONE,UNCODED,,UNCODED,1.000,%,PRN,TOPICAL,13,WEEK 26,182,11/19/2013 10:00,2013-05-18,,14,20
CDISCPILOT01,CM,01-718-1066,15,5,ATIVAN,UNCODED,,UNCODED,0.500,mg,ONCE,ORAL,4,WEEK 2,14,7/29/2013 07:00,2013-07-20,2013-07-20,14,14
CDISCPILOT01,CM,01-718-1427,5,2,ADVIL,UNCODED,,UNCODED,400.000,mg,ONCE,ORAL,4,WEEK 2,14,12/30/2012 10:00,2012-12-30,2012-12-30,14,14
CDISCPILOT01,CM,01-701-1111,31,1,KEFLEX,UNCODED,,UNCODED,500.000,mg,QID,ORAL,101,AE FOLLOW-UP,,9/28/2012 07:00,2012-07-08,,15,30
CDISCPILOT01,CM,01-708-1032,14,5,LORAZEPAM,UNCODED,,UNCODED,0.500,mg,PRN,ORAL,4,WEEK 2,14,2/22/2013 10:00,2013-02-23,2013-03-07,15,27
CDISCPILOT01,CM,01-708-1032,17,5,LORAZEPAM,UNCODED,,UNCODED,0.500,mg,PRN,ORAL,5,WEEK 4,28,3/8/2013 10:00,2013-02-23,2013-03-07,15,27
CDISCPILOT01,CM,01-709-1238,5,2,PEPCID AC,UNCODED,,UNCODED,1.000,TABLET,ONCE,ORAL,4,WEEK 2,14,5/28/2013 07:00,2013-05-29,2013-05-29,15,15
CDISCPILOT01,CM,01-709-1238,7,2,PEPCID AC,UNCODED,,UNCODED,1.000,TABLET,ONCE,ORAL,5,WEEK 4,28,6/18/2013 07:00,2013-05-29,2013-05-29,15,15
CDISCPILOT01,CM,01-710-1137,21,6,"HYDROCORTISONE, TOPICAL",UNCODED,,UNCODED,1.000,cm,PRN,TOPICAL,4,WEEK 2,14,10/24/2013 07:00,2013-10-25,,15,20
CDISCPILOT01,CM,01-710-1137,27,6,"HYDROCORTISONE, TOPICAL",UNCODED,,UNCODED,1.000,cm,PRN,TOPICAL,5,WEEK 4,28,11/7/2013 10:00,2013-10-25,,15,20
CDISCPILOT01,CM,01-710-1137,33,6,"HYDROCORTISONE, TOPICAL",UNCODED,,UNCODED,1.000,cm,PRN,TOPICAL,6,AMBUL ECG REMOVAL,30,11/10/2013 10:00,2013-10-25,,15,20
CDISCPILOT01,CM,01-710-1137,39,6,"HYDROCORTISONE, TOPICAL",UNCODED,,UNCODED,1.000,cm,PRN,TOPICAL,7,WEEK 6,42,11/12/2013 10:00,2013-10-25,,15,20
CDISCPILOT01,CM,01-710-1137,45,6,"HYDROCORTISONE, TOPICAL",UNCODED,,UNCODED,1.000,cm,PRN,TOPICAL,101,AE FOLLOW-UP,,11/24/2013 10:00,2013-10-25,,15,20
CDISCPILOT01,CM,01-713-1269,13,4,"HYDROCORTISONE, TOPICAL",UNCODED,,UNCODED,1.000,%,PRN,TOPICAL,4,WEEK 2,14,2/9/2014 10:00,2014-02-10,,15,20
CDISCPILOT01,CM,01-713-1269,17,4,"HYDROCORTISONE, TOPICAL",UNCODED,,UNCODED,1.000,%,PRN,TOPICAL,5,WEEK 4,28,2/22/2014 10:00,2014-02-10,,15,30
CDISCPILOT01,CM,01-713-1269,21,4,"HYDROCORTISONE, TOPICAL",UNCODED,,UNCODED,1.000,%,PRN,TOPICAL,6,AMBUL ECG REMOVAL,30,2/24/2014 10:00,2014-02-10,,15,30
CDISCPILOT01,CM,01-713-1269,25,4,"HYDROCORTISONE, TOPICAL",UNCODED,,UNCODED,1.000,%,PRN,TOPICAL,7,WEEK 6,42,3/10/2014 10:00,2014-02-10,,15,30
CDISCPILOT01,CM,01-713-1269,29,4,"HYDROCORTISONE, TOPICAL",UNCODED,,UNCODED,1.000,%,PRN,TOPICAL,8,WEEK 8,56,3/23/2014 10:00,2014-02-10,,15,30
CDISCPILOT01,CM,01-713-1269,33,4,"HYDROCORTISONE, TOPICAL",UNCODED,,UNCODED,1.000,%,PRN,TOPICAL,9,WEEK 12,84,4/19/2014 07:00,2014-02-10,,15,30
CDISCPILOT01,CM,01-713-1269,37,4,"HYDROCORTISONE, TOPICAL",UNCODED,,UNCODED,1.000,%,PRN,TOPICAL,10,WEEK 16,112,5/18/2014 07:00,2014-02-10,,15,30
CDISCPILOT01,CM,01-713-1269,41,4,"HYDROCORTISONE, TOPICAL",UNCODED,,UNCODED,1.000,%,PRN,TOPICAL,11,WEEK 20,140,6/14/2014 07:00,2014-02-10,,15,30
CDISCPILOT01,CM,01-713-1269,46,4,"HYDROCORTISONE, TOPICAL",UNCODED,,UNCODED,1.000,%,PRN,TOPICAL,12,WEEK 24,168,7/12/2014 07:00,2014-02-10,,15,30
CDISCPILOT01,CM,01-713-1269,51,4,"HYDROCORTISONE, TOPICAL",UNCODED,,UNCODED,1.000,%,PRN,TOPICAL,13,WEEK 26,182,7/27/2014 07:00,2014-02-10,,15,30
CDISCPILOT01,CM,01-717-1357,3,2,VITAMIN E,UNCODED,PROPHYLAXIS OR NON-THERAPEUTIC USE,UNCODED,2000.000,IU,QD,ORAL,4,WEEK 2,14,5/14/2013 07:00,2013-05-15,,15,30
CDISCPILOT01,CM,01-717-1357,5,2,VITAMIN E,UNCODED,PROPHYLAXIS OR NON-THERAPEUTIC USE,UNCODED,2000.000,IU,QD,ORAL,5,WEEK 4,28,5/28/2013 07:00,2013-05-15,,15,30
CDISCPILOT01,CM,01-717-1357,7,2,VITAMIN E,UNCODED,PROPHYLAXIS OR NON-THERAPEUTIC USE,UNCODED,2000.000,IU,QD,ORAL,7,WEEK 6,42,6/12/2013 07:00,2013-05-15,,15,30
CDISCPILOT01,CM,01-717-1357,9,2,VITAMIN E,UNCODED,PROPHYLAXIS OR NON-THERAPEUTIC USE,UNCODED,2000.000,IU,QD,ORAL,8,WEEK 8,56,6/18/2013 07:00,2013-05-15,,15,30
CDISCPILOT01,CM,01-717-1357,11,2,VITAMIN E,UNCODED,PROPHYLAXIS OR NON-THERAPEUTIC USE,UNCODED,2000.000,IU,QD,ORAL,9,WEEK 12,84,7/23/2013 07:00,2013-05-15,,15,30
CDISCPILOT01,CM,01-717-1357,14,2,VITAMIN E,UNCODED,PROPHYLAXIS OR NON-THERAPEUTIC USE,UNCODED,2000.000,IU,QD,ORAL,10,WEEK 16,112,8/20/2013 07:00,2013-05-15,,15,30
CDISCPILOT01,CM,01-717-1357,17,2,VITAMIN E,UNCODED,PROPHYLAXIS OR NON-THERAPEUTIC USE,UNCODED,2000.000,IU,QD,ORAL,11,WEEK 20,140,9/17/2013 07:00,2013-05-15,,15,30
CDISCPILOT01,CM,01-717-1357,19,2,VITAMIN E,UNCODED,PROPHYLAXIS OR NON-THERAPEUTIC USE,UNCODED,2000.000,IU,QD,ORAL,12,WEEK 24,168,10/19/2013 07:00,2013-05-15,,15,30
CDISCPILOT01,CM,01-701-1181,26,5,VITAMIN E,UNCODED,PROPHYLAXIS OR NON-THERAPEUTIC USE,UNCODED,1.000,TABLET,QD,ORAL,101,AE FOLLOW-UP,,12/19/2013 10:00,2012-06-04,,16,20
CDISCPILOT01,CM,01-708-1084,16,6,LORAZEPAM,UNCODED,PRIMARY STUDY CONDITION,UNCODED,2.000,mg,PRN,ORAL,5,WEEK 4,28,6/8/2013 07:00,2013-05-24,2013-06-08,16,31
CDISCPILOT01,CM,01-718-1254,5,2,ADVIL,UNCODED,,UNCODED,200.000,mg,ONCE,ORAL,4,WEEK 2,14,7/24/2013 07:00,2013-07-25,2013-07-25,16,16
CDISCPILOT01,CM,01-718-1254,7,2,ADVIL,UNCODED,,UNCODED,200.000,mg,ONCE,ORAL,5,WEEK 4,28,8/5/2013 07:00,2013-07-25,2013-07-25,16,16
CDISCPILOT01,CM,01-701-1302,48,3,METAMUCIL,UNCODED,,UNCODED,2.000,Tbsp,QD,ORAL,101,AE FOLLOW-UP,,12/15/2013 10:00,2012-03-01,,17,21
CDISCPILOT01,CM,01-709-1217,18,6,VICKS FORMULA 44D,UNCODED,,UNCODED,1.000,tsp,QD,ORAL,5,WEEK 4,28,3/30/2013 10:00,2013-03-20,2013-03-28,17,25
CDISCPILOT01,CM,01-716-1157,56,13,DIPHENHYDRAMINE HYDROCHLORIDE,UNCODED,,UNCODED,25.000,mg,PRN,ORAL,5,WEEK 4,28,11/3/2013 10:00,2013-10-18,2013-10-19,17,18
CDISCPILOT01,CM,01-703-1076,34,2,TIMOPTIC,UNCODED,,UNCODED,1.000,gtt,EVERY NIGHT,OPHTHALMIC,101,AE FOLLOW-UP,,1/20/2014 10:00,2012-11-13,,18,21
CDISCPILOT01,CM,01-708-1158,9,3,LORAZEPAM,UNCODED,,UNCODED,0.500,mg,PRN,ORAL,4,WEEK 2,14,2/25/2014 10:00,2014-02-25,2014-03-22,18,43
CDISCPILOT01,CM,01-708-1158,12,3,LORAZEPAM,UNCODED,,UNCODED,0.500,mg,PRN,ORAL,5,WEEK 4,28,3/5/2014 10:00,2014-02-25,2014-03-22,18,43
CDISCPILOT01,CM,01-708-1158,15,3,LORAZEPAM,UNCODED,,UNCODED,0.500,mg,PRN,ORAL,6,AMBUL ECG REMOVAL,30,3/7/2014 10:00,2014-02-25,2014-03-22,18,43
CDISCPILOT01,CM,01-708-1158,18,3,LORAZEPAM,UNCODED,,UNCODED,0.500,mg,PRN,ORAL,7,WEEK 6,42,3/22/2014 10:00,2014-02-25,2014-03-22,18,43
CDISCPILOT01,CM,01-709-1007,15,5,HYDROCORTISONE,HYDROCORTISONE,,"SYSTEMIC HORMONAL PREPARATIONS, EXCL.",0.250,IN,PRN,TOPICAL,4,WEEK 2,14,8/17/2012 07:00,2012-08-17,2012-08-29,18,30
CDISCPILOT01,CM,01-709-1007,19,5,HYDROCORTISONE,HYDROCORTISONE,,"SYSTEMIC HORMONAL PREPARATIONS, EXCL.",0.250,IN,PRN,TOPICAL,5,WEEK 4,28,8/31/2012 07:00,2012-08-17,2012-08-29,18,30
CDISCPILOT01,CM,01-703-1119,38,1,NORVASC,AMLODIPINE,,CARDIOVASCULAR SYSTEM,5.000,mg,QD,ORAL,101,AE FOLLOW-UP,,7/19/2013 07:00,2013-01-20,,19,21
CDISCPILOT01,CM,01-707-1206,11,3,PNEUMOVAX,UNCODED,PROPHYLAXIS OR NON-THERAPEUTIC USE,UNCODED,0.500,mL,ONCE,INTRAMUSCULAR,5,WEEK 4,28,11/24/2013 10:00,2013-11-15,2013-11-15,19,19
CDISCPILOT01,CM,01-713-1209,33,10,LORAZEPAM,UNCODED,,UNCODED,0.500,mg,PRN,ORAL,4,WEEK 2,14,6/13/2013 07:00,2013-06-14,2013-06-21,19,26
CDISCPILOT01,CM,01-713-1209,41,10,LORAZEPAM,UNCODED,,UNCODED,0.500,mg,PRN,ORAL,5,WEEK 4,28,6/21/2013 07:00,2013-06-14,2013-06-21,19,26
CDISCPILOT01,CM,01-703-1076,18,3,LOPID,UNCODED,,UNCODED,600.000,mg,BID,ORAL,6,AMBUL ECG REMOVAL,30,11/21/2013 10:00,2013-08-31,2013-11-27,20,25
CDISCPILOT01,CM,01-703-1076,17,2,TIMOPTIC,UNCODED,,UNCODED,1.000,gtt,EVERY NIGHT,OPHTHALMIC,6,AMBUL ECG REMOVAL,30,11/21/2013 10:00,2012-11-13,,20,25
CDISCPILOT01,CM,01-703-1100,19,3,VITAMIN B12,UNCODED,PROPHYLAXIS OR NON-THERAPEUTIC USE,UNCODED,15.000,ug,PRN,ORAL,6,AMBUL ECG REMOVAL,30,4/13/2013 07:00,2012-01-19,,20,25
CDISCPILOT01,CM,01-703-1119,17,1,NORVASC,AMLODIPINE,,CARDIOVASCULAR SYSTEM,5.000,mg,QD,ORAL,6,AMBUL ECG REMOVAL,30,3/23/2013 10:00,2013-01-20,,20,25
CDISCPILOT01,CM,01-703-1119,16,2,PREMARIN,ESTROGENS CONJUGATED,PROPHYLAXIS OR NON-THERAPEUTIC USE,GENITO URINARY SYSTEM AND SEX HORMONES,0.300,mg,QD,ORAL,6,AMBUL ECG REMOVAL,30,3/23/2013 10:00,2012-01-13,,20,25
CDISCPILOT01,CM,01-703-1119,18,3,ZOCOR,UNCODED,,UNCODED,10.000,mg,QD,ORAL,6,AMBUL ECG REMOVAL,30,3/23/2013 10:00,2013-01-20,,20,25
CDISCPILOT01,CM,01-703-1379,18,2,MONOPRIL,UNCODED,,UNCODED,10.000,mg,QD,ORAL,6,AMBUL ECG REMOVAL,30,10/20/2013 07:00,2013-06-07,,20,25
CDISCPILOT01,CM,01-704-1093,14,1,HYTRIN,UNCODED,,UNCODED,2.000,mg,QD,ORAL,6,AMBUL ECG REMOVAL,30,4/16/2013 07:00,2013-02-02,,20,25
CDISCPILOT01,CM,01-701-1180,6,2,ASPIRIN,ACETYLSALICYLIC ACID,,NERVOUS SYSTEM,2.000,TABLET,QD,ORAL,5,WEEK 4,28,3/11/2013 10:00,2013-03-03,2013-03-09,20,26
CDISCPILOT01,CM,01-704-1127,6,1,MULTIVITAMIN,UNCODED,PROPHYLAXIS OR NON-THERAPEUTIC USE,UNCODED,1.000,TABLET,QD,ORAL,6,AMBUL ECG REMOVAL,30,11/3/2013 10:00,2010-08-11,,20,25
CDISCPILOT01,CM,01-704-1266,27,4,ZESTRIL,UNCODED,,UNCODED,5.000,mg,QD,ORAL,6,AMBUL ECG REMOVAL,30,11/9/2013 10:00,2013-06-20,,20,25
CDISCPILOT01,CM,01-704-1323,63,10,CLARITIN,UNCODED,,UNCODED,10.000,mg,QD,ORAL,6,AMBUL ECG REMOVAL,30,8/5/2013 07:00,2013-06-23,,20,25
CDISCPILOT01,CM,01-704-1323,62,4,FOSAMAX,UNCODED,,UNCODED,10.000,mg,QD,ORAL,6,AMBUL ECG REMOVAL,30,8/5/2013 07:00,2013-05-09,,20,25
CDISCPILOT01,CM,01-704-1435,36,2,BENZALKONIUM CHLORIDE,UNCODED,,UNCODED,1.000,,QD,OPHTHALMIC,6,AMBUL ECG REMOVAL,30,12/16/2012 10:00,2012-08-08,,20,25
CDISCPILOT01,CM,01-708-1084,18,3,TIMOPTIC,UNCODED,,UNCODED,1.000,gtt,QD,OPHTHALMIC,6,AMBUL ECG REMOVAL,30,6/10/2013 07:00,2013-04-26,,20,25
CDISCPILOT01,CM,01-708-1178,12,1,MAXZIDE,UNCODED,,UNCODED,1.000,TABLET,QD,ORAL,6,AMBUL ECG REMOVAL,30,2/6/2014 10:00,2013-12-13,,20,25
CDISCPILOT01,CM,01-708-1216,14,2,NORVASC,AMLODIPINE,,CARDIOVASCULAR SYSTEM,5.000,mg,QD,ORAL,6,AMBUL ECG REMOVAL,30,11/23/2012 10:00,2012-10-10,,20,25
CDISCPILOT01,CM,01-708-1336,12,4,PRINIVIL,UNCODED,,UNCODED,10.000,mg,QD,ORAL,6,AMBUL ECG REMOVAL,30,1/2/2013 10:00,2011-07-15,2013-06-05,20,181
CDISCPILOT01,CM,01-709-1001,34,4,ZINC,UNCODED,PROPHYLAXIS OR NON-THERAPEUTIC USE,UNCODED,1.000,TABLET,QD,ORAL,6,AMBUL ECG REMOVAL,30,11/3/2013 10:00,2012-09-05,,20,35
CDISCPILOT01,CM,01-709-1001,38,5,ZOCOR,UNCODED,,UNCODED,10.000,mg,QD,ORAL,6,AMBUL ECG REMOVAL,30,11/3/2013 10:00,2013-07-08,,20,35
CDISCPILOT01,CM,01-709-1312,24,2,NORVASC,AMLODIPINE,,CARDIOVASCULAR SYSTEM,5.000,mg,QD,ORAL,6,AMBUL ECG REMOVAL,30,5/18/2014 07:00,2014-03-24,,20,35
CDISCPILOT01,CM,01-710-1060,27,3,PREDNISONE,UNCODED,,UNCODED,1.000,%,QD,OPHTHALMIC,6,AMBUL ECG REMOVAL,30,2/2/2013 10:00,2012-04-18,,20,35
CDISCPILOT01,CM,01-711-1036,13,4,ALBUTEROL,UNCODED,,UNCODED,2.000,PUFF,QID,RESPIRATORY (INHALATION),6,AMBUL ECG REMOVAL,30,8/30/2012 07:00,2011-10-12,2012-10-22,20,86
CDISCPILOT01,CM,01-711-1143,13,4,SYNTHROID,UNCODED,,UNCODED,0.150,mg,QD,ORAL,6,AMBUL ECG REMOVAL,30,4/30/2013 07:00,2009-03-03,2013-05-20,20,48
CDISCPILOT01,CM,01-713-1043,12,2,IBUPROFEN,UNCODED,PROPHYLAXIS OR NON-THERAPEUTIC USE,UNCODED,400.000,mg,QD,ORAL,6,AMBUL ECG REMOVAL,30,10/12/2013 07:00,2013-06-21,,20,48
CDISCPILOT01,CM,01-713-1073,30,1,ASPIRIN (E.C.),UNCODED,,UNCODED,325.000,mg,QD,ORAL,6,AMBUL ECG REMOVAL,30,4/27/2014 07:00,2014-01-27,,20,48
CDISCPILOT01,CM,01-713-1073,29,5,VITAMIN B12,UNCODED,,UNCODED,1000.000,ug,QM,INTRAMUSCULAR,6,AMBUL ECG REMOVAL,30,4/27/2014 07:00,2013-07-20,,20,48
CDISCPILOT01,CM,01-713-1209,50,1,AXID,NIZATIDINE,,ALIMENTARY TRACT AND METABOLISM,150.000,mg,QD,ORAL,6,AMBUL ECG REMOVAL,30,6/23/2013 07:00,2013-05-09,,20,48
CDISCPILOT01,CM,01-713-1209,49,3,QUESTRAN,UNCODED,PROPHYLAXIS OR NON-THERAPEUTIC USE,UNCODED,0.500,,TID,ORAL,6,AMBUL ECG REMOVAL,30,6/23/2013 07:00,2012-10-31,,20,48
CDISCPILOT01,CM,01-713-1269,20,3,VITAMIN E,UNCODED,PROPHYLAXIS OR NON-THERAPEUTIC USE,UNCODED,1000.000,IU,BID,ORAL,6,AMBUL ECG REMOVAL,30,2/24/2014 10:00,2013-11-02,,20,48
CDISCPILOT01,CM,01-714-1068,22,1,CALCIUM,CALCIUM,,ALIMENTARY TRACT AND METABOLISM,500.000,mg,TID,ORAL,6,AMBUL ECG REMOVAL,30,9/6/2013 07:00,2012-09-25,,20,48
CDISCPILOT01,CM,01-715-1397,17,1,GLUCOPHAGE,METFORMIN HYDROCHLORIDE,,ALIMENTARY TRACT AND METABOLISM,850.000,mg,TID,ORAL,6,AMBUL ECG REMOVAL,30,5/2/2013 07:00,2011-10-28,,20,48
CDISCPILOT01,CM,01-716-1026,31,4,MONOPRIL,UNCODED,,UNCODED,20.000,mg,QD,ORAL,6,AMBUL ECG REMOVAL,30,5/1/2014 07:00,2014-02-26,,20,48
CDISCPILOT01,CM,01-716-1071,30,1,CHLORAL HYDRATE,UNCODED,,UNCODED,500.000,mg,PRN,ORAL,6,AMBUL ECG REMOVAL,30,7/6/2013 07:00,2013-05-26,,20,48
CDISCPILOT01,CM,01-716-1157,68,3,CARDURA,DOXAZOSIN MESILATE,,CARDIOVASCULAR SYSTEM,2.000,mg,QD,ORAL,6,AMBUL ECG REMOVAL,30,11/5/2013 10:00,2013-09-21,,20,48
CDISCPILOT01,CM,01-716-1189,11,1,AXID,NIZATIDINE,,ALIMENTARY TRACT AND METABOLISM,75.000,mg,BID,ORAL,6,AMBUL ECG REMOVAL,30,11/12/2012 10:00,2012-09-29,,20,48
CDISCPILOT01,CM,01-716-1189,12,2,MILK OF MAGNESIA,UNCODED,PROPHYLAXIS OR NON-THERAPEUTIC USE,UNCODED,1.000,Tbsp,QD,ORAL,6,AMBUL ECG REMOVAL,30,11/12/2012 10:00,2012-09-29,,20,48
CDISCPILOT01,CM,01-717-1004,36,2,FOSAMAX,UNCODED,,UNCODED,10.000,mg,QD,ORAL,6,AMBUL ECG REMOVAL,30,2/10/2014 10:00,2013-01-26,,20,48
CDISCPILOT01,CM,01-717-1004,37,13,FUROSEMIDE,UNCODED,,UNCODED,40.000,mg,QD,ORAL,6,AMBUL ECG REMOVAL,30,2/10/2014 10:00,2013-08-20,2014-04-24,20,101
CDISCPILOT01,CM,01-717-1109,11,1,SYNTHROID,UNCODED,,UNCODED,0.100,mg,QD,ORAL,6,AMBUL ECG REMOVAL,30,2/24/2014 10:00,2012-01-13,,20,101
CDISCPILOT01,CM,01-718-1150,16,1,MULTIVITAMIN,UNCODED,PROPHYLAXIS OR NON-THERAPEUTIC USE,UNCODED,1.000,TABLET,QD,ORAL,6,AMBUL ECG REMOVAL,30,2/17/2013 10:00,2012-10-27,,20,101
CDISCPILOT01,CM,01-718-1150,15,2,VITAMIN B12,UNCODED,,UNCODED,1000.000,mg,Q4S,INTRAMUSCULAR,6,AMBUL ECG REMOVAL,30,2/17/2013 10:00,2012-06-27,,20,101
CDISCPILOT01,CM,01-713-1209,42,19,"HYDROCORTISONE, TOPICAL",UNCODED,,UNCODED,1.000,%,PRN,TOPICAL,5,WEEK 4,28,6/21/2013 07:00,2013-06-15,2013-11-14,20,172
CDISCPILOT01,CM,01-713-1209,51,19,"HYDROCORTISONE, TOPICAL",UNCODED,,UNCODED,1.000,%,PRN,TOPICAL,6,AMBUL ECG REMOVAL,30,6/23/2013 07:00,2013-06-15,2013-11-14,20,172
CDISCPILOT01,CM,01-713-1209,61,19,"HYDROCORTISONE, TOPICAL",UNCODED,,UNCODED,1.000,%,PRN,TOPICAL,7,WEEK 6,42,7/7/2013 07:00,2013-06-15,2013-11-14,20,172
CDISCPILOT01,CM,01-713-1209,71,19,"HYDROCORTISONE, TOPICAL",UNCODED,,UNCODED,1.000,%,PRN,TOPICAL,8,WEEK 8,56,7/21/2013 07:00,2013-06-15,2013-11-14,20,172
CDISCPILOT01,CM,01-713-1209,81,19,"HYDROCORTISONE, TOPICAL",UNCODED,,UNCODED,1.000,%,PRN,TOPICAL,9,WEEK 12,84,8/18/2013 07:00,2013-06-15,2013-11-14,20,172
CDISCPILOT01,CM,01-713-1209,92,19,"HYDROCORTISONE, TOPICAL",UNCODED,,UNCODED,1.000,%,PRN,TOPICAL,10,WEEK 16,112,9/14/2013 07:00,2013-06-15,2013-11-14,20,172
CDISCPILOT01,CM,01-713-1209,103,19,"HYDROCORTISONE, TOPICAL",UNCODED,,UNCODED,1.000,%,PRN,TOPICAL,11,WEEK 20,140,10/13/2013 07:00,2013-06-15,2013-11-14,20,172
CDISCPILOT01,CM,01-713-1209,114,19,"HYDROCORTISONE, TOPICAL",UNCODED,,UNCODED,1.000,%,PRN,TOPICAL,12,WEEK 24,168,11/13/2013 10:00,2013-06-15,2013-11-14,20,172
CDISCPILOT01,CM,01-713-1209,125,19,"HYDROCORTISONE, TOPICAL",UNCODED,,UNCODED,1.000,%,PRN,TOPICAL,13,WEEK 26,182,11/21/2013 10:00,2013-06-15,2013-11-14,20,172
CDISCPILOT01,CM,01-713-1209,43,11,MAALOX,ALGELDRATE,,ALIMENTARY TRACT AND METABOLISM,30.000,mL,PRN,ORAL,5,WEEK 4,28,6/21/2013 07:00,2013-06-15,,20,25
CDISCPILOT01,CM,01-713-1209,52,11,MAALOX,ALGELDRATE,,ALIMENTARY TRACT AND METABOLISM,30.000,mL,PRN,ORAL,6,AMBUL ECG REMOVAL,30,6/23/2013 07:00,2013-06-15,,20,25
CDISCPILOT01,CM,01-713-1209,62,11,MAALOX,ALGELDRATE,,ALIMENTARY TRACT AND METABOLISM,30.000,mL,PRN,ORAL,7,WEEK 6,42,7/7/2013 07:00,2013-06-15,,20,25
CDISCPILOT01,CM,01-713-1209,72,11,MAALOX,ALGELDRATE,,ALIMENTARY TRACT AND METABOLISM,30.000,mL,PRN,ORAL,8,WEEK 8,56,7/21/2013 07:00,2013-06-15,,20,25
CDISCPILOT01,CM,01-713-1209,82,11,MAALOX,ALGELDRATE,,ALIMENTARY TRACT AND METABOLISM,30.000,mL,PRN,ORAL,9,WEEK 12,84,8/18/2013 07:00,2013-06-15,,20,25
CDISCPILOT01,CM,01-713-1209,93,11,MAALOX,ALGELDRATE,,ALIMENTARY TRACT AND METABOLISM,30.000,mL,PRN,ORAL,10,WEEK 16,112,9/14/2013 07:00,2013-06-15,,20,25
CDISCPILOT01,CM,01-713-1209,104,11,MAALOX,ALGELDRATE,,ALIMENTARY TRACT AND METABOLISM,30.000,mL,PRN,ORAL,11,WEEK 20,140,10/13/2013 07:00,2013-06-15,,20,25
CDISCPILOT01,CM,01-713-1209,115,11,MAALOX,ALGELDRATE,,ALIMENTARY TRACT AND METABOLISM,30.000,mL,PRN,ORAL,12,WEEK 24,168,11/13/2013 10:00,2013-06-15,,20,25
CDISCPILOT01,CM,01-713-1209,126,11,MAALOX,ALGELDRATE,,ALIMENTARY TRACT AND METABOLISM,30.000,mL,PRN,ORAL,13,WEEK 26,182,11/21/2013 10:00,2013-06-15,,20,23
CDISCPILOT01,CM,01-714-1195,31,8,HYDROCORTISONE,HYDROCORTISONE,,"SYSTEMIC HORMONAL PREPARATIONS, EXCL.",1.000,,BID,TOPICAL,5,WEEK 4,28,5/22/2013 07:00,2013-05-15,2013-05-23,20,28
CDISCPILOT01,CM,01-714-1195,39,8,HYDROCORTISONE,HYDROCORTISONE,,"SYSTEMIC HORMONAL PREPARATIONS, EXCL.",1.000,,BID,TOPICAL,7,WEEK 6,42,6/4/2013 07:00,2013-05-15,2013-05-23,20,28
CDISCPILOT01,CM,01-717-1446,6,2,HYDROCORTISONE,HYDROCORTISONE,,"SYSTEMIC HORMONAL PREPARATIONS, EXCL.",1.000,VIAL,PRN,TOPICAL,5,WEEK 4,28,10/5/2013 07:00,2013-09-20,,20,23
CDISCPILOT01,CM,01-717-1446,8,2,HYDROCORTISONE,HYDROCORTISONE,,"SYSTEMIC HORMONAL PREPARATIONS, EXCL.",1.000,VIAL,PRN,TOPICAL,6,AMBUL ECG REMOVAL,30,10/7/2013 07:00,2013-09-20,,20,23
CDISCPILOT01,CM,01-717-1446,10,2,HYDROCORTISONE,HYDROCORTISONE,,"SYSTEMIC HORMONAL PREPARATIONS, EXCL.",1.000,VIAL,PRN,TOPICAL,7,WEEK 6,42,10/15/2013 07:00,2013-09-20,,20,23
CDISCPILOT01,CM,01-717-1446,13,2,HYDROCORTISONE,HYDROCORTISONE,,"SYSTEMIC HORMONAL PREPARATIONS, EXCL.",1.000,VIAL,PRN,TOPICAL,8,WEEK 8,56,10/30/2013 10:00,2013-09-20,,20,23
CDISCPILOT01,CM,01-717-1446,16,2,HYDROCORTISONE,HYDROCORTISONE,,"SYSTEMIC HORMONAL PREPARATIONS, EXCL.",1.000,VIAL,PRN,TOPICAL,9,WEEK 12,84,11/23/2013 10:00,2013-09-20,,20,23
CDISCPILOT01,CM,01-717-1446,19,2,HYDROCORTISONE,HYDROCORTISONE,,"SYSTEMIC HORMONAL PREPARATIONS, EXCL.",1.000,VIAL,PRN,TOPICAL,10,WEEK 16,112,12/28/2013 10:00,2013-09-20,,20,23
CDISCPILOT01,CM,01-717-1446,24,2,HYDROCORTISONE,HYDROCORTISONE,,"SYSTEMIC HORMONAL PREPARATIONS, EXCL.",1.000,VIAL,PRN,TOPICAL,11,WEEK 20,140,1/18/2014 10:00,2013-09-20,,20,23
CDISCPILOT01,CM,01-717-1446,27,2,HYDROCORTISONE,HYDROCORTISONE,,"SYSTEMIC HORMONAL PREPARATIONS, EXCL.",1.000,VIAL,PRN,TOPICAL,12,WEEK 24,168,2/15/2014 10:00,2013-09-20,,20,23
CDISCPILOT01,CM,01-717-1446,29,2,HYDROCORTISONE,HYDROCORTISONE,,"SYSTEMIC HORMONAL PREPARATIONS, EXCL.",1.000,VIAL,PRN,TOPICAL,13,WEEK 26,182,3/3/2014 10:00,2013-09-20,,20,23
CDISCPILOT01,CM,01-701-1028,6,2,HYDROCORTISONE,HYDROCORTISONE,,"SYSTEMIC HORMONAL PREPARATIONS, EXCL.",1.000,VIAL,PRN,TOPICAL,5,WEEK 4,28,8/13/2013 07:00,2013-08-08,,21,23
CDISCPILOT01,CM,01-701-1028,8,2,HYDROCORTISONE,HYDROCORTISONE,,"SYSTEMIC HORMONAL PREPARATIONS, EXCL.",1.000,VIAL,PRN,TOPICAL,6,AMBUL ECG REMOVAL,30,8/15/2013 07:00,2013-08-08,,21,23
CDISCPILOT01,CM,01-701-1028,10,2,HYDROCORTISONE,HYDROCORTISONE,,"SYSTEMIC HORMONAL PREPARATIONS, EXCL.",1.000,VIAL,PRN,TOPICAL,7,WEEK 6,42,8/28/2013 07:00,2013-08-08,,21,23
CDISCPILOT01,CM,01-701-1028,12,2,HYDROCORTISONE,HYDROCORTISONE,,"SYSTEMIC HORMONAL PREPARATIONS, EXCL.",1.000,VIAL,PRN,TOPICAL,8,WEEK 8,56,9/9/2013 07:00,2013-08-08,,21,23
CDISCPILOT01,CM,01-701-1028,14,2,HYDROCORTISONE,HYDROCORTISONE,,"SYSTEMIC HORMONAL PREPARATIONS, EXCL.",1.000,VIAL,PRN,TOPICAL,9,WEEK 12,84,10/8/2013 07:00,2013-08-08,,21,23
CDISCPILOT01,CM,01-701-1028,16,2,HYDROCORTISONE,HYDROCORTISONE,,"SYSTEMIC HORMONAL PREPARATIONS, EXCL.",1.000,VIAL,PRN,TOPICAL,10,WEEK 16,112,11/5/2013 10:00,2013-08-08,,21,23
CDISCPILOT01,CM,01-701-1028,18,2,HYDROCORTISONE,HYDROCORTISONE,,"SYSTEMIC HORMONAL PREPARATIONS, EXCL.",1.000,VIAL,PRN,TOPICAL,11,WEEK 20,140,12/3/2013 10:00,2013-08-08,,21,23
CDISCPILOT01,CM,01-701-1028,20,2,HYDROCORTISONE,HYDROCORTISONE,,"SYSTEMIC HORMONAL PREPARATIONS, EXCL.",1.000,VIAL,PRN,TOPICAL,12,WEEK 24,168,1/5/2014 10:00,2013-08-08,,21,23
CDISCPILOT01,CM,01-701-1028,22,2,HYDROCORTISONE,HYDROCORTISONE,,"SYSTEMIC HORMONAL PREPARATIONS, EXCL.",1.000,VIAL,PRN,TOPICAL,13,WEEK 26,182,1/13/2014 10:00,2013-08-08,,21,23
CDISCPILOT01,CM,01-713-1179,6,2,PHENAZOPYRIDINE,UNCODED,,UNCODED,200.000,mg,TID,ORAL,5,WEEK 4,28,9/4/2013 07:00,2013-08-29,2013-09-03,21,26
CDISCPILOT01,CM,01-701-1341,6,2,HYDROCORTISONE,HYDROCORTISONE,,"SYSTEMIC HORMONAL PREPARATIONS, EXCL.",1.000,VIAL,PRN,TOPICAL,5,WEEK 4,28,2/6/2013 10:00,2013-01-26,2013-01-30,22,26
CDISCPILOT01,CM,01-704-1065,18,6,"HYDROCORTISONE, TOPICAL",UNCODED,,UNCODED,2.500,%,PRN,TOPICAL,5,WEEK 4,28,11/24/2013 10:00,2013-11-14,,22,23
CDISCPILOT01,CM,01-704-1065,23,6,"HYDROCORTISONE, TOPICAL",UNCODED,,UNCODED,2.500,%,PRN,TOPICAL,6,AMBUL ECG REMOVAL,30,11/26/2013 10:00,2013-11-14,,22,23
CDISCPILOT01,CM,01-704-1065,28,6,"HYDROCORTISONE, TOPICAL",UNCODED,,UNCODED,2.500,%,PRN,TOPICAL,7,WEEK 6,42,12/5/2013 10:00,2013-11-14,,22,23
CDISCPILOT01,CM,01-704-1065,33,6,"HYDROCORTISONE, TOPICAL",UNCODED,,UNCODED,2.500,%,PRN,TOPICAL,8,WEEK 8,56,12/19/2013 10:00,2013-11-14,,22,23
CDISCPILOT01,CM,01-704-1065,38,6,"HYDROCORTISONE, TOPICAL",UNCODED,,UNCODED,2.500,%,PRN,TOPICAL,9,WEEK 12,84,12/23/2013 10:00,2013-11-14,,22,23
CDISCPILOT01,CM,01-704-1065,43,6,"HYDROCORTISONE, TOPICAL",UNCODED,,UNCODED,2.500,%,PRN,TOPICAL,101,AE FOLLOW-UP,,2/16/2014 10:00,2013-11-14,,22,23
CDISCPILOT01,CM,01-705-1031,9,3,CORTISONE,UNCODED,,UNCODED,1.000,,PRN,TOPICAL,4,WEEK 2,14,12/17/2013 10:00,2013-12-18,,22,23
CDISCPILOT01,CM,01-705-1031,12,3,CORTISONE,UNCODED,,UNCODED,1.000,,PRN,TOPICAL,5,WEEK 4,28,12/24/2013 10:00,2013-12-18,,22,23
CDISCPILOT01,CM,01-705-1031,15,3,CORTISONE,UNCODED,,UNCODED,1.000,,PRN,TOPICAL,6,AMBUL ECG REMOVAL,30,12/26/2013 10:00,2013-12-18,,22,23
CDISCPILOT01,CM,01-705-1031,18,3,CORTISONE,UNCODED,,UNCODED,1.000,,PRN,TOPICAL,7,WEEK 6,42,1/11/2014 10:00,2013-12-18,,22,23
CDISCPILOT01,CM,01-705-1031,22,3,CORTISONE,UNCODED,,UNCODED,1.000,,PRN,TOPICAL,8,WEEK 8,56,1/22/2014 10:00,2013-12-18,,22,23
CDISCPILOT01,CM,01-705-1031,26,3,CORTISONE,UNCODED,,UNCODED,1.000,,PRN,TOPICAL,9,WEEK 12,84,2/19/2014 10:00,2013-12-18,,22,23
CDISCPILOT01,CM,01-705-1031,30,3,CORTISONE,UNCODED,,UNCODED,1.000,,PRN,TOPICAL,10,WEEK 16,112,3/20/2014 10:00,2013-12-18,,22,23
CDISCPILOT01,CM,01-705-1031,33,3,CORTISONE,UNCODED,,UNCODED,1.000,,PRN,TOPICAL,11,WEEK 20,140,4/12/2014 07:00,2013-12-18,,22,23
CDISCPILOT01,CM,01-705-1031,36,3,CORTISONE,UNCODED,,UNCODED,1.000,,PRN,TOPICAL,12,WEEK 24,168,5/10/2014 07:00,2013-12-18,,22,23
CDISCPILOT01,CM,01-713-1141,6,12,POLYSPORIN OINTMENT,UNCODED,,UNCODED,1.000,VIAL,PRN,TOPICAL,5,WEEK 4,28,6/25/2013 07:00,2013-06-21,2013-06-28,22,29
CDISCPILOT01,CM,01-713-1141,8,12,POLYSPORIN OINTMENT,UNCODED,,UNCODED,1.000,VIAL,PRN,TOPICAL,6,AMBUL ECG REMOVAL,30,6/27/2013 07:00,2013-06-21,2013-06-28,22,29
CDISCPILOT01,CM,01-713-1141,11,12,POLYSPORIN OINTMENT,UNCODED,,UNCODED,1.000,VIAL,PRN,TOPICAL,7,WEEK 6,42,8/5/2013 07:00,2013-06-21,2013-06-28,22,29
CDISCPILOT01,CM,01-717-1344,28,7,SUDAFED,UNCODED,,UNCODED,2.000,TABLET,QD,ORAL,5,WEEK 4,28,2/6/2014 10:00,2014-02-01,2014-02-04,22,25
CDISCPILOT01,CM,01-701-1180,7,3,SUDAFED,UNCODED,,UNCODED,2.000,TABLET,QD,ORAL,5,WEEK 4,28,3/11/2013 10:00,2013-03-06,2013-03-07,23,24
CDISCPILOT01,CM,01-704-1323,52,12,BIAXIN,UNCODED,,UNCODED,500.000,mg,QD,ORAL,5,WEEK 4,28,8/3/2013 07:00,2013-07-30,2013-08-03,23,27
CDISCPILOT01,CM,01-701-1047,27,7,ROBITUSSIN-DM,UNCODED,,UNCODED,2.000,tsp,QID,ORAL,5,WEEK 4,28,3/9/2013 10:00,2013-03-07,,24,25
CDISCPILOT01,CM,01-701-1047,34,7,ROBITUSSIN-DM,UNCODED,,UNCODED,2.000,tsp,QID,ORAL,6,AMBUL ECG REMOVAL,30,3/29/2013 10:00,2013-03-07,,24,25
CDISCPILOT01,CM,01-701-1047,41,7,ROBITUSSIN-DM,UNCODED,,UNCODED,2.000,tsp,QID,ORAL,201,RETRIEVAL,168,7/27/2013 07:00,2013-03-07,,24,25
CDISCPILOT01,CM,01-701-1047,28,8,SUDAFED,UNCODED,,UNCODED,2.000,TABLET,QID,ORAL,5,WEEK 4,28,3/9/2013 10:00,2013-03-07,,24,25
CDISCPILOT01,CM,01-701-1047,35,8,SUDAFED,UNCODED,,UNCODED,2.000,TABLET,QID,ORAL,6,AMBUL ECG REMOVAL,30,3/29/2013 10:00,2013-03-07,,24,25
CDISCPILOT01,CM,01-701-1047,42,8,SUDAFED,UNCODED,,UNCODED,2.000,TABLET,QID,ORAL,201,RETRIEVAL,168,7/27/2013 07:00,2013-03-07,,24,25
CDISCPILOT01,CM,01-701-1130,21,5,SULFAMETHOXAZOLE,UNCODED,,UNCODED,1.000,TABLET,BID,ORAL,5,WEEK 4,28,3/15/2014 10:00,2014-03-10,2014-03-16,24,30
CDISCPILOT01,CM,01-701-1130,26,5,SULFAMETHOXAZOLE,UNCODED,,UNCODED,1.000,TABLET,BID,ORAL,6,AMBUL ECG REMOVAL,30,3/17/2014 10:00,2014-03-10,2014-03-16,24,30
CDISCPILOT01,CM,01-701-1146,37,9,"HYDROCORTISONE, TOPICAL",UNCODED,,UNCODED,1.000,VIAL,PRN,TOPICAL,5,WEEK 4,28,6/15/2013 07:00,2013-06-12,,24,25
CDISCPILOT01,CM,01-701-1146,45,9,"HYDROCORTISONE, TOPICAL",UNCODED,,UNCODED,1.000,VIAL,PRN,TOPICAL,6,AMBUL ECG REMOVAL,30,6/17/2013 07:00,2013-06-12,,24,25
CDISCPILOT01,CM,01-701-1146,53,9,"HYDROCORTISONE, TOPICAL",UNCODED,,UNCODED,1.000,VIAL,PRN,TOPICAL,7,WEEK 6,42,6/29/2013 07:00,2013-06-12,,24,25
CDISCPILOT01,CM,01-701-1146,61,9,"HYDROCORTISONE, TOPICAL",UNCODED,,UNCODED,1.000,VIAL,PRN,TOPICAL,101,AE FOLLOW-UP,,7/14/2013 07:00,2013-06-12,,24,25
CDISCPILOT01,CM,01-701-1211,3,3,HYDROCORTISONE,HYDROCORTISONE,,"SYSTEMIC HORMONAL PREPARATIONS, EXCL.",1.000,VIAL,PRN,TOPICAL,5,WEEK 4,28,12/10/2012 10:00,2012-12-08,,24,25
CDISCPILOT01,CM,01-701-1211,4,3,HYDROCORTISONE,HYDROCORTISONE,,"SYSTEMIC HORMONAL PREPARATIONS, EXCL.",1.000,VIAL,PRN,TOPICAL,6,AMBUL ECG REMOVAL,30,12/12/2012 10:00,2012-12-08,,24,25
CDISCPILOT01,CM,01-701-1211,5,3,HYDROCORTISONE,HYDROCORTISONE,,"SYSTEMIC HORMONAL PREPARATIONS, EXCL.",1.000,VIAL,PRN,TOPICAL,7,WEEK 6,42,12/24/2012 10:00,2012-12-08,,24,25
CDISCPILOT01,CM,01-701-1211,6,3,HYDROCORTISONE,HYDROCORTISONE,,"SYSTEMIC HORMONAL PREPARATIONS, EXCL.",1.000,VIAL,PRN,TOPICAL,8,WEEK 8,56,1/7/2013 10:00,2012-12-08,,24,25
CDISCPILOT01,CM,01-701-1211,9,3,HYDROCORTISONE,HYDROCORTISONE,,"SYSTEMIC HORMONAL PREPARATIONS, EXCL.",1.000,VIAL,PRN,TOPICAL,9,WEEK 12,84,1/13/2013 10:00,2012-12-08,,24,25
CDISCPILOT01,CM,01-703-1100,16,4,NEOSPORIN /USA/,UNCODED,,UNCODED,1.000,g,PRN,TOPICAL,5,WEEK 4,28,4/11/2013 07:00,2013-04-05,2013-04-15,24,34
CDISCPILOT01,CM,01-703-1100,20,4,NEOSPORIN /USA/,UNCODED,,UNCODED,1.000,g,PRN,TOPICAL,6,AMBUL ECG REMOVAL,30,4/13/2013 07:00,2013-04-05,2013-04-15,24,34
CDISCPILOT01,CM,01-703-1100,24,4,NEOSPORIN /USA/,UNCODED,,UNCODED,1.000,g,PRN,TOPICAL,7,WEEK 6,42,4/23/2013 07:00,2013-04-05,2013-04-15,24,34
CDISCPILOT01,CM,01-709-1217,19,8,HYDROCORTISONE,HYDROCORTISONE,,"SYSTEMIC HORMONAL PREPARATIONS, EXCL.",1.000,IU,PRN,TOPICAL,5,WEEK 4,28,3/30/2013 10:00,2013-03-27,2013-06-18,24,107
CDISCPILOT01,CM,01-709-1217,24,8,HYDROCORTISONE,HYDROCORTISONE,,"SYSTEMIC HORMONAL PREPARATIONS, EXCL.",1.000,IU,PRN,TOPICAL,6,AMBUL ECG REMOVAL,30,3/31/2013 09:00,2013-03-27,2013-06-18,24,107
CDISCPILOT01,CM,01-709-1217,29,8,HYDROCORTISONE,HYDROCORTISONE,,"SYSTEMIC HORMONAL PREPARATIONS, EXCL.",1.000,IU,PRN,TOPICAL,7,WEEK 6,42,4/12/2013 07:00,2013-03-27,2013-06-18,24,107
CDISCPILOT01,CM,01-709-1217,34,8,HYDROCORTISONE,HYDROCORTISONE,,"SYSTEMIC HORMONAL PREPARATIONS, EXCL.",1.000,IU,PRN,TOPICAL,8,WEEK 8,56,4/28/2013 07:00,2013-03-27,2013-06-18,24,107
CDISCPILOT01,CM,01-709-1217,39,8,HYDROCORTISONE,HYDROCORTISONE,,"SYSTEMIC HORMONAL PREPARATIONS, EXCL.",1.000,IU,PRN,TOPICAL,9,WEEK 12,84,5/24/2013 07:00,2013-03-27,2013-06-18,24,107
CDISCPILOT01,CM,01-709-1217,45,8,HYDROCORTISONE,HYDROCORTISONE,,"SYSTEMIC HORMONAL PREPARATIONS, EXCL.",1.000,IU,PRN,TOPICAL,10,WEEK 16,112,6/24/2013 07:00,2013-03-27,2013-06-18,24,107
CDISCPILOT01,CM,01-716-1157,57,12,CORTISONE,UNCODED,,UNCODED,,% (v/v),PRN,SUBCUTANEOUS,5,WEEK 4,28,11/3/2013 10:00,2013-10-25,,24,25
CDISCPILOT01,CM,01-716-1157,69,12,CORTISONE,UNCODED,,UNCODED,,% (v/v),PRN,SUBCUTANEOUS,6,AMBUL ECG REMOVAL,30,11/5/2013 10:00,2013-10-25,,24,25
CDISCPILOT01,CM,01-716-1157,81,12,CORTISONE,UNCODED,,UNCODED,,% (v/v),PRN,SUBCUTANEOUS,7,WEEK 6,42,11/11/2013 10:00,2013-10-25,,24,25
CDISCPILOT01,CM,01-716-1157,93,12,CORTISONE,UNCODED,,UNCODED,,% (v/v),PRN,SUBCUTANEOUS,8,WEEK 8,56,11/25/2013 10:00,2013-10-25,,24,25
CDISCPILOT01,CM,01-716-1157,105,12,CORTISONE,UNCODED,,UNCODED,,% (v/v),PRN,SUBCUTANEOUS,9,WEEK 12,84,12/23/2013 10:00,2013-10-25,,24,25
CDISCPILOT01,CM,01-716-1157,120,12,CORTISONE,UNCODED,,UNCODED,,% (v/v),PRN,SUBCUTANEOUS,10,WEEK 16,112,1/19/2014 10:00,2013-10-25,,24,25
CDISCPILOT01,CM,01-716-1157,135,12,CORTISONE,UNCODED,,UNCODED,,% (v/v),PRN,SUBCUTANEOUS,11,WEEK 20,140,2/23/2014 10:00,2013-10-25,,24,27
CDISCPILOT01,CM,01-716-1157,150,12,CORTISONE,UNCODED,,UNCODED,,% (v/v),PRN,SUBCUTANEOUS,12,WEEK 24,168,3/26/2014 10:00,2013-10-25,,24,27
CDISCPILOT01,CM,01-716-1157,164,12,CORTISONE,UNCODED,,UNCODED,,% (v/v),PRN,SUBCUTANEOUS,13,WEEK 26,182,4/4/2014 07:00,2013-10-25,,24,27
CDISCPILOT01,CM,01-701-1239,11,3,DIABETA,UNCODED,,UNCODED,2.500,mg,QD,ORAL,5,WEEK 4,28,2/7/2014 10:00,2014-02-04,,25,27
CDISCPILOT01,CM,01-701-1239,14,3,DIABETA,UNCODED,,UNCODED,2.500,mg,QD,ORAL,6,AMBUL ECG REMOVAL,30,2/9/2014 10:00,2014-02-04,,25,27
CDISCPILOT01,CM,01-701-1239,17,3,DIABETA,UNCODED,,UNCODED,2.500,mg,QD,ORAL,7,WEEK 6,42,2/18/2014 10:00,2014-02-04,,25,27
CDISCPILOT01,CM,01-701-1239,20,3,DIABETA,UNCODED,,UNCODED,2.500,mg,QD,ORAL,8,WEEK 8,56,3/5/2014 10:00,2014-02-04,,25,27
CDISCPILOT01,CM,01-701-1239,23,3,DIABETA,UNCODED,,UNCODED,2.500,mg,QD,ORAL,9,WEEK 12,84,4/1/2014 07:00,2014-02-04,,25,27
CDISCPILOT01,CM,01-701-1239,26,3,DIABETA,UNCODED,,UNCODED,2.500,mg,QD,ORAL,10,WEEK 16,112,5/1/2014 07:00,2014-02-04,,25,27
CDISCPILOT01,CM,01-701-1239,29,3,DIABETA,UNCODED,,UNCODED,2.500,mg,QD,ORAL,11,WEEK 20,140,5/27/2014 07:00,2014-02-04,,25,27
CDISCPILOT01,CM,01-701-1239,32,3,DIABETA,UNCODED,,UNCODED,2.500,mg,QD,ORAL,12,WEEK 24,168,6/26/2014 07:00,2014-02-04,,25,27
CDISCPILOT01,CM,01-701-1239,35,3,DIABETA,UNCODED,,UNCODED,2.500,mg,QD,ORAL,13,WEEK 26,182,7/10/2014 07:00,2014-02-04,,25,27
CDISCPILOT01,CM,01-716-1044,1,1,IMODIUM,LOPERAMIDE HYDROCHLORIDE,,ALIMENTARY TRACT AND METABOLISM,2.000,mg,PRN,ORAL,5,WEEK 4,28,5/23/2013 07:00,2013-05-21,,25,27
CDISCPILOT01,CM,01-716-1044,2,1,IMODIUM,LOPERAMIDE HYDROCHLORIDE,,ALIMENTARY TRACT AND METABOLISM,2.000,mg,PRN,ORAL,6,AMBUL ECG REMOVAL,30,5/25/2013 07:00,2013-05-21,,25,27
CDISCPILOT01,CM,01-716-1044,3,1,IMODIUM,LOPERAMIDE HYDROCHLORIDE,,ALIMENTARY TRACT AND METABOLISM,2.000,mg,PRN,ORAL,7,WEEK 6,42,6/12/2013 07:00,2013-05-21,,25,27
CDISCPILOT01,CM,01-716-1044,4,1,IMODIUM,LOPERAMIDE HYDROCHLORIDE,,ALIMENTARY TRACT AND METABOLISM,2.000,mg,PRN,ORAL,8,WEEK 8,56,6/27/2013 07:00,2013-05-21,,25,30
CDISCPILOT01,CM,01-716-1044,5,1,IMODIUM,LOPERAMIDE HYDROCHLORIDE,,ALIMENTARY TRACT AND METABOLISM,2.000,mg,PRN,ORAL,9,WEEK 12,84,7/24/2013 07:00,2013-05-21,,25,30
CDISCPILOT01,CM,01-716-1044,6,1,IMODIUM,LOPERAMIDE HYDROCHLORIDE,,ALIMENTARY TRACT AND METABOLISM,2.000,mg,PRN,ORAL,10,WEEK 16,112,8/15/2013 07:00,2013-05-21,,25,30
CDISCPILOT01,CM,01-716-1044,7,1,IMODIUM,LOPERAMIDE HYDROCHLORIDE,,ALIMENTARY TRACT AND METABOLISM,2.000,mg,PRN,ORAL,11,WEEK 20,140,9/12/2013 07:00,2013-05-21,,25,30
CDISCPILOT01,CM,01-716-1044,8,1,IMODIUM,LOPERAMIDE HYDROCHLORIDE,,ALIMENTARY TRACT AND METABOLISM,2.000,mg,PRN,ORAL,12,WEEK 24,168,10/15/2013 07:00,2013-05-21,,25,30
CDISCPILOT01,CM,01-716-1044,9,1,IMODIUM,LOPERAMIDE HYDROCHLORIDE,,ALIMENTARY TRACT AND METABOLISM,2.000,mg,PRN,ORAL,13,WEEK 26,182,11/3/2013 10:00,2013-05-21,,25,30
CDISCPILOT01,CM,01-717-1201,29,7,HYDROCORTISONE VALERATE,UNCODED,,UNCODED,1.000,VIAL,PRN,TOPICAL,5,WEEK 4,28,1/16/2014 10:00,2014-01-12,,25,30
CDISCPILOT01,CM,01-717-1201,36,7,HYDROCORTISONE VALERATE,UNCODED,,UNCODED,1.000,VIAL,PRN,TOPICAL,6,AMBUL ECG REMOVAL,30,1/18/2014 10:00,2014-01-12,,25,30
CDISCPILOT01,CM,01-717-1201,43,7,HYDROCORTISONE VALERATE,UNCODED,,UNCODED,1.000,VIAL,PRN,TOPICAL,7,WEEK 6,42,1/29/2014 10:00,2014-01-12,,25,30
CDISCPILOT01,CM,01-717-1201,50,7,HYDROCORTISONE VALERATE,UNCODED,,UNCODED,1.000,VIAL,PRN,TOPICAL,8,WEEK 8,56,2/20/2014 10:00,2014-01-12,,25,30
CDISCPILOT01,CM,01-711-1143,11,2,ROBITUSSIN,UNCODED,,UNCODED,2.000,tsp,Q6H,ORAL,5,WEEK 4,28,4/28/2013 07:00,2013-04-28,2013-05-04,26,32
CDISCPILOT01,CM,01-711-1143,14,2,ROBITUSSIN,UNCODED,,UNCODED,2.000,tsp,Q6H,ORAL,6,AMBUL ECG REMOVAL,30,4/30/2013 07:00,2013-04-28,2013-05-04,26,32
CDISCPILOT01,CM,01-711-1143,17,2,ROBITUSSIN,UNCODED,,UNCODED,2.000,tsp,Q6H,ORAL,7,WEEK 6,42,5/14/2013 07:00,2013-04-28,2013-05-04,26,32
CDISCPILOT01,CM,01-709-1020,11,3,HYDROCORTISONE,HYDROCORTISONE,,"SYSTEMIC HORMONAL PREPARATIONS, EXCL.",1.000,IN,PRN,TOPICAL,5,WEEK 4,28,12/26/2012 10:00,2012-12-27,,27,30
CDISCPILOT01,CM,01-709-1020,14,3,HYDROCORTISONE,HYDROCORTISONE,,"SYSTEMIC HORMONAL PREPARATIONS, EXCL.",1.000,IN,PRN,TOPICAL,7,WEEK 6,42,1/11/2013 10:00,2012-12-27,,27,30
CDISCPILOT01,CM,01-709-1020,19,3,HYDROCORTISONE,HYDROCORTISONE,,"SYSTEMIC HORMONAL PREPARATIONS, EXCL.",1.000,IN,PRN,TOPICAL,8,WEEK 8,56,1/25/2013 10:00,2012-12-27,,27,30
CDISCPILOT01,CM,01-709-1020,22,3,HYDROCORTISONE,HYDROCORTISONE,,"SYSTEMIC HORMONAL PREPARATIONS, EXCL.",1.000,IN,PRN,TOPICAL,9,WEEK 12,84,2/22/2013 10:00,2012-12-27,,27,30
CDISCPILOT01,CM,01-709-1020,25,3,HYDROCORTISONE,HYDROCORTISONE,,"SYSTEMIC HORMONAL PREPARATIONS, EXCL.",1.000,IN,PRN,TOPICAL,10,WEEK 16,112,3/23/2013 10:00,2012-12-27,,27,30
CDISCPILOT01,CM,01-709-1020,28,3,HYDROCORTISONE,HYDROCORTISONE,,"SYSTEMIC HORMONAL PREPARATIONS, EXCL.",1.000,IN,PRN,TOPICAL,11,WEEK 20,140,4/19/2013 07:00,2012-12-27,,27,30
CDISCPILOT01,CM,01-709-1020,31,3,HYDROCORTISONE,HYDROCORTISONE,,"SYSTEMIC HORMONAL PREPARATIONS, EXCL.",1.000,IN,PRN,TOPICAL,12,WEEK 24,168,5/17/2013 07:00,2012-12-27,,27,30
CDISCPILOT01,CM,01-709-1020,34,3,HYDROCORTISONE,HYDROCORTISONE,,"SYSTEMIC HORMONAL PREPARATIONS, EXCL.",1.000,IN,PRN,TOPICAL,13,WEEK 26,182,5/31/2013 07:00,2012-12-27,,27,30
CDISCPILOT01,CM,01-709-1088,8,3,"HYDROCORTISONE, TOPICAL",UNCODED,,UNCODED,1.000,IU,PRN,TOPICAL,5,WEEK 4,28,5/7/2014 07:00,2014-05-08,,27,30
CDISCPILOT01,CM,01-709-1088,10,3,"HYDROCORTISONE, TOPICAL",UNCODED,,UNCODED,1.000,IU,PRN,TOPICAL,6,AMBUL ECG REMOVAL,30,5/9/2014 07:00,2014-05-08,,27,30
CDISCPILOT01,CM,01-709-1088,12,3,"HYDROCORTISONE, TOPICAL",UNCODED,,UNCODED,1.000,IU,PRN,TOPICAL,7,WEEK 6,42,5/21/2014 07:00,2014-05-08,,27,29
CDISCPILOT01,CM,01-709-1088,14,3,"HYDROCORTISONE, TOPICAL",UNCODED,,UNCODED,1.000,IU,PRN,TOPICAL,8,WEEK 8,56,5/31/2014 07:00,2014-05-08,,27,29
CDISCPILOT01,CM,01-709-1088,16,3,"HYDROCORTISONE, TOPICAL",UNCODED,,UNCODED,1.000,IU,PRN,TOPICAL,9,WEEK 12,84,6/28/2014 07:00,2014-05-08,,27,29
CDISCPILOT01,CM,01-709-1088,18,3,"HYDROCORTISONE, TOPICAL",UNCODED,,UNCODED,1.000,IU,PRN,TOPICAL,10,WEEK 16,112,8/1/2014 07:00,2014-05-08,,27,29
CDISCPILOT01,CM,01-709-1088,20,3,"HYDROCORTISONE, TOPICAL",UNCODED,,UNCODED,1.000,IU,PRN,TOPICAL,11,WEEK 20,140,8/22/2014 07:00,2014-05-08,,27,29
CDISCPILOT01,CM,01-709-1088,22,3,"HYDROCORTISONE, TOPICAL",UNCODED,,UNCODED,1.000,IU,PRN,TOPICAL,12,WEEK 24,168,9/26/2014 07:00,2014-05-08,,27,29
CDISCPILOT01,CM,01-709-1088,24,3,"HYDROCORTISONE, TOPICAL",UNCODED,,UNCODED,1.000,IU,PRN,TOPICAL,13,WEEK 26,182,10/8/2014 07:00,2014-05-08,,27,29
CDISCPILOT01,CM,01-709-1217,20,5,BECONASE,UNCODED,,UNCODED,1.000,SPRAY,BID,NASAL,5,WEEK 4,28,3/30/2013 10:00,2013-03-30,,27,29
CDISCPILOT01,CM,01-709-1217,25,5,BECONASE,UNCODED,,UNCODED,1.000,SPRAY,BID,NASAL,6,AMBUL ECG REMOVAL,30,3/31/2013 09:00,2013-03-30,,27,29
CDISCPILOT01,CM,01-709-1217,30,5,BECONASE,UNCODED,,UNCODED,1.000,SPRAY,BID,NASAL,7,WEEK 6,42,4/12/2013 07:00,2013-03-30,,27,29
CDISCPILOT01,CM,01-709-1217,35,5,BECONASE,UNCODED,,UNCODED,1.000,SPRAY,BID,NASAL,8,WEEK 8,56,4/28/2013 07:00,2013-03-30,,27,29
CDISCPILOT01,CM,01-709-1217,40,5,BECONASE,UNCODED,,UNCODED,1.000,SPRAY,BID,NASAL,9,WEEK 12,84,5/24/2013 07:00,2013-03-30,,27,29
CDISCPILOT01,CM,01-709-1217,46,5,BECONASE,UNCODED,,UNCODED,1.000,SPRAY,BID,NASAL,10,WEEK 16,112,6/24/2013 07:00,2013-03-30,,27,29
CDISCPILOT01,CM,01-709-1285,18,6,"HYDROCORTISONE, TOPICAL",UNCODED,,UNCODED,1.000,IN,PRN,TOPICAL,5,WEEK 4,28,4/18/2013 07:00,2013-04-19,2013-05-24,27,62
CDISCPILOT01,CM,01-709-1285,22,6,"HYDROCORTISONE, TOPICAL",UNCODED,,UNCODED,1.000,IN,PRN,TOPICAL,6,AMBUL ECG REMOVAL,30,4/20/2013 07:00,2013-04-19,2013-05-24,27,62
CDISCPILOT01,CM,01-709-1285,26,6,"HYDROCORTISONE, TOPICAL",UNCODED,,UNCODED,1.000,IN,PRN,TOPICAL,7,WEEK 6,42,5/2/2013 07:00,2013-04-19,2013-05-24,27,62
CDISCPILOT01,CM,01-709-1285,30,6,"HYDROCORTISONE, TOPICAL",UNCODED,,UNCODED,1.000,IN,PRN,TOPICAL,8,WEEK 8,56,5/18/2013 07:00,2013-04-19,2013-05-24,27,62
CDISCPILOT01,CM,01-709-1285,34,6,"HYDROCORTISONE, TOPICAL",UNCODED,,UNCODED,1.000,IN,PRN,TOPICAL,9,WEEK 12,84,5/30/2013 07:00,2013-04-19,2013-05-24,27,62
CDISCPILOT01,CM,01-710-1314,11,3,ROBITUSSIN,UNCODED,,UNCODED,1.000,Tbsp,Q4H,ORAL,5,WEEK 4,28,5/22/2013 07:00,2013-05-20,2013-05-24,27,31
CDISCPILOT01,CM,01-710-1314,14,3,ROBITUSSIN,UNCODED,,UNCODED,1.000,Tbsp,Q4H,ORAL,6,AMBUL ECG REMOVAL,30,5/24/2013 07:00,2013-05-20,2013-05-24,27,31
CDISCPILOT01,CM,01-713-1179,7,4,METRONIDAZOLE,UNCODED,,UNCODED,250.000,mg,TID,ORAL,5,WEEK 4,28,9/4/2013 07:00,2013-09-04,2013-09-06,27,29
CDISCPILOT01,CM,01-713-1179,9,4,METRONIDAZOLE,UNCODED,,UNCODED,250.000,mg,TID,ORAL,6,AMBUL ECG REMOVAL,30,9/6/2013 07:00,2013-09-04,2013-09-06,27,29
CDISCPILOT01,CM,01-717-1004,32,9,ATIVAN,UNCODED,PROPHYLAXIS OR NON-THERAPEUTIC USE,UNCODED,1.000,mg,QD,ORAL,5,WEEK 4,28,2/8/2014 10:00,2014-02-09,2014-02-09,27,27
CDISCPILOT01,CM,01-717-1004,38,9,ATIVAN,UNCODED,PROPHYLAXIS OR NON-THERAPEUTIC USE,UNCODED,1.000,mg,QD,ORAL,6,AMBUL ECG REMOVAL,30,2/10/2014 10:00,2014-02-09,2014-02-09,27,27
CDISCPILOT01,CM,01-718-1170,12,5,COZAAR,LOSARTAN POTASSIUM,,CARDIOVASCULAR SYSTEM,25.000,mg,EVERY NIGHT,ORAL,5,WEEK 4,28,11/3/2013 10:00,2013-10-12,,27,29
CDISCPILOT01,CM,01-718-1170,17,5,COZAAR,LOSARTAN POTASSIUM,,CARDIOVASCULAR SYSTEM,25.000,mg,EVERY NIGHT,ORAL,201,RETRIEVAL,168,3/15/2014 10:00,2013-10-12,,27,29
CDISCPILOT01,CM,01-701-1360,12,4,GENERAL ANESTHESIA,UNCODED,PROPHYLAXIS OR NON-THERAPEUTIC USE,UNCODED,,,ONCE,INTRAVENOUS,101,AE FOLLOW-UP,,9/8/2013 07:00,2013-08-27,2013-08-27,28,28
CDISCPILOT01,CM,01-701-1360,13,5,HYDROCODONE,UNCODED,PROPHYLAXIS OR NON-THERAPEUTIC USE,UNCODED,1.000,TABLET,Q3H,ORAL,101,AE FOLLOW-UP,,9/8/2013 07:00,2013-08-27,2013-09-27,28,59
CDISCPILOT01,CM,01-701-1360,16,5,HYDROCODONE,UNCODED,PROPHYLAXIS OR NON-THERAPEUTIC USE,UNCODED,1.000,TABLET,Q3H,ORAL,201,RETRIEVAL,168,2/10/2014 10:00,2013-08-27,2013-09-27,28,59
CDISCPILOT01,CM,01-704-1323,53,13,"HYDROCORTISONE, TOPICAL",UNCODED,,UNCODED,1.000,VIAL,PRN,TOPICAL,5,WEEK 4,28,8/3/2013 07:00,2013-08-04,,28,29
CDISCPILOT01,CM,01-704-1323,64,13,"HYDROCORTISONE, TOPICAL",UNCODED,,UNCODED,1.000,VIAL,PRN,TOPICAL,6,AMBUL ECG REMOVAL,30,8/5/2013 07:00,2013-08-04,,28,29
CDISCPILOT01,CM,01-704-1323,75,13,"HYDROCORTISONE, TOPICAL",UNCODED,,UNCODED,1.000,VIAL,PRN,TOPICAL,7,WEEK 6,42,8/7/2013 07:00,2013-08-04,,28,29
CDISCPILOT01,CM,01-704-1323,86,13,"HYDROCORTISONE, TOPICAL",UNCODED,,UNCODED,1.000,VIAL,PRN,TOPICAL,101,AE FOLLOW-UP,,9/30/2013 07:00,2013-08-04,,28,29
CDISCPILOT01,CM,01-709-1238,8,3,AMOXICILLIN,UNCODED,,UNCODED,250.000,mg,TID,ORAL,5,WEEK 4,28,6/18/2013 07:00,2013-06-11,2013-06-20,28,37
CDISCPILOT01,CM,01-709-1238,11,3,AMOXICILLIN,UNCODED,,UNCODED,250.000,mg,TID,ORAL,6,AMBUL ECG REMOVAL,30,6/24/2013 07:00,2013-06-11,2013-06-20,28,37
CDISCPILOT01,CM,01-709-1238,9,5,ROBITUSSIN A-C,UNCODED,,UNCODED,2.000,tsp,QID,ORAL,5,WEEK 4,28,6/18/2013 07:00,2013-06-11,2013-06-24,28,41
CDISCPILOT01,CM,01-709-1238,12,5,ROBITUSSIN A-C,UNCODED,,UNCODED,2.000,tsp,QID,ORAL,6,AMBUL ECG REMOVAL,30,6/24/2013 07:00,2013-06-11,2013-06-24,28,41
CDISCPILOT01,CM,01-710-1154,6,2,BENADRYL,UNCODED,,UNCODED,2.000,cm,PRN,TOPICAL,5,WEEK 4,28,4/24/2014 07:00,2014-04-25,,28,29
CDISCPILOT01,CM,01-710-1154,8,2,BENADRYL,UNCODED,,UNCODED,2.000,cm,PRN,TOPICAL,7,WEEK 6,42,5/8/2014 07:00,2014-04-25,,28,29
CDISCPILOT01,CM,01-710-1154,10,2,BENADRYL,UNCODED,,UNCODED,2.000,cm,PRN,TOPICAL,101,AE FOLLOW-UP,,6/12/2014 07:00,2014-04-25,,28,29
CDISCPILOT01,CM,01-710-1408,1,1,ROBITUSSIN,UNCODED,,UNCODED,1.000,Tbsp,PRN,ORAL,5,WEEK 4,28,2/6/2013 10:00,2013-02-01,2013-02-09,28,36
CDISCPILOT01,CM,01-710-1408,2,1,ROBITUSSIN,UNCODED,,UNCODED,1.000,Tbsp,PRN,ORAL,6,AMBUL ECG REMOVAL,30,2/8/2013 10:00,2013-02-01,2013-02-09,28,36
CDISCPILOT01,CM,01-710-1408,3,1,ROBITUSSIN,UNCODED,,UNCODED,1.000,Tbsp,PRN,ORAL,7,WEEK 6,42,2/19/2013 10:00,2013-02-01,2013-02-09,28,36
CDISCPILOT01,CM,01-713-1209,53,12,LORAZEPAM,UNCODED,,UNCODED,0.500,mg,PRN,ORAL,6,AMBUL ECG REMOVAL,30,6/23/2013 07:00,2013-06-23,2013-07-07,28,42
CDISCPILOT01,CM,01-713-1209,63,12,LORAZEPAM,UNCODED,,UNCODED,0.500,mg,PRN,ORAL,7,WEEK 6,42,7/7/2013 07:00,2013-06-23,2013-07-07,28,42
CDISCPILOT01,CM,01-714-1195,32,7,LIDEX,UNCODED,,UNCODED,1.000,,BID,TOPICAL,5,WEEK 4,28,5/22/2013 07:00,2013-05-23,,28,29
CDISCPILOT01,CM,01-714-1195,40,7,LIDEX,UNCODED,,UNCODED,1.000,,BID,TOPICAL,7,WEEK 6,42,6/4/2013 07:00,2013-05-23,,28,29
CDISCPILOT01,CM,01-714-1195,47,7,LIDEX,UNCODED,,UNCODED,1.000,,BID,TOPICAL,8,WEEK 8,56,6/19/2013 07:00,2013-05-23,,28,29
CDISCPILOT01,CM,01-714-1195,54,7,LIDEX,UNCODED,,UNCODED,1.000,,BID,TOPICAL,9,WEEK 12,84,7/16/2013 07:00,2013-05-23,,28,29
CDISCPILOT01,CM,01-714-1195,61,7,LIDEX,UNCODED,,UNCODED,1.000,,BID,TOPICAL,10,WEEK 16,112,8/8/2013 07:00,2013-05-23,,28,35
CDISCPILOT01,CM,01-714-1195,69,7,LIDEX,UNCODED,,UNCODED,1.000,,BID,TOPICAL,11,WEEK 20,140,9/11/2013 07:00,2013-05-23,,28,35
CDISCPILOT01,CM,01-714-1195,77,7,LIDEX,UNCODED,,UNCODED,1.000,,BID,TOPICAL,12,WEEK 24,168,10/9/2013 07:00,2013-05-23,,28,35
CDISCPILOT01,CM,01-714-1195,85,7,LIDEX,UNCODED,,UNCODED,1.000,,BID,TOPICAL,13,WEEK 26,182,10/22/2013 07:00,2013-05-23,,28,35
CDISCPILOT01,CM,01-703-1086,3,1,CALAMINE,UNCODED,,UNCODED,1.000,VIAL,PRN,TOPICAL,5,WEEK 4,28,9/29/2012 07:00,2012-09-30,2012-12-13,29,103
CDISCPILOT01,CM,01-703-1086,6,1,CALAMINE,UNCODED,,UNCODED,1.000,VIAL,PRN,TOPICAL,6,AMBUL ECG REMOVAL,30,10/1/2012 07:00,2012-09-30,2012-12-13,29,103
CDISCPILOT01,CM,01-703-1086,9,1,CALAMINE,UNCODED,,UNCODED,1.000,VIAL,PRN,TOPICAL,7,WEEK 6,42,10/12/2012 07:00,2012-09-30,2012-12-13,29,103
CDISCPILOT01,CM,01-703-1086,12,1,CALAMINE,UNCODED,,UNCODED,1.000,VIAL,PRN,TOPICAL,8,WEEK 8,56,10/26/2012 07:00,2012-09-30,2012-12-13,29,103
CDISCPILOT01,CM,01-703-1086,15,1,CALAMINE,UNCODED,,UNCODED,1.000,VIAL,PRN,TOPICAL,9,WEEK 12,84,11/26/2012 10:00,2012-09-30,2012-12-13,29,103
CDISCPILOT01,CM,01-703-1086,18,1,CALAMINE,UNCODED,,UNCODED,1.000,VIAL,PRN,TOPICAL,10,WEEK 16,112,12/23/2012 10:00,2012-09-30,2012-12-13,29,103
CDISCPILOT01,CM,01-703-1086,4,3,CORTISONE,UNCODED,,UNCODED,2.500,%,PRN,TOPICAL,5,WEEK 4,28,9/29/2012 07:00,2012-09-30,2012-12-13,29,103
CDISCPILOT01,CM,01-703-1086,7,3,CORTISONE,UNCODED,,UNCODED,2.500,%,PRN,TOPICAL,6,AMBUL ECG REMOVAL,30,10/1/2012 07:00,2012-09-30,2012-12-13,29,103
CDISCPILOT01,CM,01-703-1086,10,3,CORTISONE,UNCODED,,UNCODED,2.500,%,PRN,TOPICAL,7,WEEK 6,42,10/12/2012 07:00,2012-09-30,2012-12-13,29,103
CDISCPILOT01,CM,01-703-1086,13,3,CORTISONE,UNCODED,,UNCODED,2.500,%,PRN,TOPICAL,8,WEEK 8,56,10/26/2012 07:00,2012-09-30,2012-12-13,29,103
CDISCPILOT01,CM,01-703-1086,16,3,CORTISONE,UNCODED,,UNCODED,2.500,%,PRN,TOPICAL,9,WEEK 12,84,11/26/2012 10:00,2012-09-30,2012-12-13,29,103
CDISCPILOT01,CM,01-703-1086,19,3,CORTISONE,UNCODED,,UNCODED,2.500,%,PRN,TOPICAL,10,WEEK 16,112,12/23/2012 10:00,2012-09-30,2012-12-13,29,103
CDISCPILOT01,CM,01-709-1102,19,4,HYDROCORTISONE,HYDROCORTISONE,,"SYSTEMIC HORMONAL PREPARATIONS, EXCL.",1.000,IN,PRN,TOPICAL,6,AMBUL ECG REMOVAL,30,2/12/2013 10:00,2013-02-12,2013-03-31,29,76
CDISCPILOT01,CM,01-709-1102,23,4,HYDROCORTISONE,HYDROCORTISONE,,"SYSTEMIC HORMONAL PREPARATIONS, EXCL.",1.000,IN,PRN,TOPICAL,7,WEEK 6,42,2/26/2013 10:00,2013-02-12,2013-03-31,29,76
CDISCPILOT01,CM,01-709-1102,27,4,HYDROCORTISONE,HYDROCORTISONE,,"SYSTEMIC HORMONAL PREPARATIONS, EXCL.",1.000,IN,PRN,TOPICAL,8,WEEK 8,56,3/12/2013 10:00,2013-02-12,2013-03-31,29,76
CDISCPILOT01,CM,01-709-1102,31,4,HYDROCORTISONE,HYDROCORTISONE,,"SYSTEMIC HORMONAL PREPARATIONS, EXCL.",1.000,IN,PRN,TOPICAL,9,WEEK 12,84,3/31/2013 09:00,2013-02-12,2013-03-31,29,76
CDISCPILOT01,CM,01-709-1102,35,4,HYDROCORTISONE,HYDROCORTISONE,,"SYSTEMIC HORMONAL PREPARATIONS, EXCL.",1.000,IN,PRN,TOPICAL,101,AE FOLLOW-UP,,5/11/2013 07:00,2013-02-12,2013-03-31,29,76
CDISCPILOT01,CM,01-711-1012,14,4,AMOXICILLIN,UNCODED,,UNCODED,500.000,mg,Q6H,ORAL,5,WEEK 4,28,5/1/2013 07:00,2013-05-01,,29,35
CDISCPILOT01,CM,01-711-1012,18,4,AMOXICILLIN,UNCODED,,UNCODED,500.000,mg,Q6H,ORAL,101,AE FOLLOW-UP,,7/16/2013 07:00,2013-05-01,,29,35
CDISCPILOT01,CM,01-711-1012,22,4,AMOXICILLIN,UNCODED,,UNCODED,500.000,mg,Q6H,ORAL,201,RETRIEVAL,168,9/17/2013 07:00,2013-05-01,,29,35
CDISCPILOT01,CM,01-711-1012,15,5,BENZONATATE,UNCODED,,UNCODED,100.000,mg,Q6H,ORAL,5,WEEK 4,28,5/1/2013 07:00,2013-05-01,,29,35
CDISCPILOT01,CM,01-711-1012,19,5,BENZONATATE,UNCODED,,UNCODED,100.000,mg,Q6H,ORAL,101,AE FOLLOW-UP,,7/16/2013 07:00,2013-05-01,,29,35
CDISCPILOT01,CM,01-711-1012,23,5,BENZONATATE,UNCODED,,UNCODED,100.000,mg,Q6H,ORAL,201,RETRIEVAL,168,9/17/2013 07:00,2013-05-01,,29,35
CDISCPILOT01,CM,01-713-1141,9,6,"HYDROCORTISONE, TOPICAL",UNCODED,,UNCODED,1.000,%,PRN,TOPICAL,6,AMBUL ECG REMOVAL,30,6/27/2013 07:00,2013-06-28,2013-07-01,29,32
CDISCPILOT01,CM,01-713-1141,12,6,"HYDROCORTISONE, TOPICAL",UNCODED,,UNCODED,1.000,%,PRN,TOPICAL,7,WEEK 6,42,8/5/2013 07:00,2013-06-28,2013-07-01,29,32
CDISCPILOT01,CM,01-713-1179,10,3,IBUPROFEN,UNCODED,PROPHYLAXIS OR NON-THERAPEUTIC USE,UNCODED,200.000,mg,PRN,ORAL,6,AMBUL ECG REMOVAL,30,9/6/2013 07:00,2013-09-06,,29,35
CDISCPILOT01,CM,01-713-1179,12,3,IBUPROFEN,UNCODED,PROPHYLAXIS OR NON-THERAPEUTIC USE,UNCODED,200.000,mg,PRN,ORAL,7,WEEK 6,42,9/18/2013 07:00,2013-09-06,,29,35
CDISCPILOT01,CM,01-713-1179,15,3,IBUPROFEN,UNCODED,PROPHYLAXIS OR NON-THERAPEUTIC USE,UNCODED,200.000,mg,PRN,ORAL,8,WEEK 8,56,10/3/2013 07:00,2013-09-06,,29,35
CDISCPILOT01,CM,01-713-1179,18,3,IBUPROFEN,UNCODED,PROPHYLAXIS OR NON-THERAPEUTIC USE,UNCODED,200.000,mg,PRN,ORAL,9,WEEK 12,84,11/5/2013 10:00,2013-09-06,,29,35
CDISCPILOT01,CM,01-713-1179,25,3,IBUPROFEN,UNCODED,PROPHYLAXIS OR NON-THERAPEUTIC USE,UNCODED,200.000,mg,PRN,ORAL,10,WEEK 16,112,11/25/2013 10:00,2013-09-06,,29,35
CDISCPILOT01,CM,01-713-1179,32,3,IBUPROFEN,UNCODED,PROPHYLAXIS OR NON-THERAPEUTIC USE,UNCODED,200.000,mg,PRN,ORAL,11,WEEK 20,140,12/31/2013 10:00,2013-09-06,,29,35
CDISCPILOT01,CM,01-713-1179,38,3,IBUPROFEN,UNCODED,PROPHYLAXIS OR NON-THERAPEUTIC USE,UNCODED,200.000,mg,PRN,ORAL,12,WEEK 24,168,1/23/2014 10:00,2013-09-06,,29,35
CDISCPILOT01,CM,01-713-1179,42,3,IBUPROFEN,UNCODED,PROPHYLAXIS OR NON-THERAPEUTIC USE,UNCODED,200.000,mg,PRN,ORAL,13,WEEK 26,182,2/4/2014 10:00,2013-09-06,,29,35
CDISCPILOT01,CM,01-718-1170,13,6,HALDOL,HALOPERIDOL,,NERVOUS SYSTEM,1.000,mg,ONCE,INTRAMUSCULAR,5,WEEK 4,28,11/3/2013 10:00,2013-10-14,2013-10-14,29,29
CDISCPILOT01,CM,01-718-1371,36,10,"HYDROCORTISONE, TOPICAL",UNCODED,,UNCODED,1.000,%,OTHER,TOPICAL,5,WEEK 4,28,5/23/2013 07:00,2013-05-24,2013-06-20,29,56
CDISCPILOT01,CM,01-718-1371,44,10,"HYDROCORTISONE, TOPICAL",UNCODED,,UNCODED,1.000,%,OTHER,TOPICAL,6,AMBUL ECG REMOVAL,30,5/25/2013 07:00,2013-05-24,2013-06-20,29,56
CDISCPILOT01,CM,01-718-1371,52,10,"HYDROCORTISONE, TOPICAL",UNCODED,,UNCODED,1.000,%,OTHER,TOPICAL,7,WEEK 6,42,6/19/2013 07:00,2013-05-24,2013-06-20,29,56
CDISCPILOT01,CM,01-718-1371,62,10,"HYDROCORTISONE, TOPICAL",UNCODED,,UNCODED,1.000,%,OTHER,TOPICAL,8,WEEK 8,56,7/3/2013 07:00,2013-05-24,2013-06-20,29,56
CDISCPILOT01,CM,01-701-1118,11,1,ASPIRIN,ACETYLSALICYLIC ACID,PROPHYLAXIS OR NON-THERAPEUTIC USE,NERVOUS SYSTEM,325.000,mg,PRN,ORAL,6,AMBUL ECG REMOVAL,30,4/10/2014 07:00,2000-12-10,,30,34
CDISCPILOT01,CM,01-701-1118,12,2,MULTIVITAMIN,UNCODED,PROPHYLAXIS OR NON-THERAPEUTIC USE,UNCODED,1.000,TABLET,QD,ORAL,6,AMBUL ECG REMOVAL,30,4/10/2014 07:00,2012-01-21,,30,34
CDISCPILOT01,CM,01-701-1192,12,2,MULTIVITAMINS,UNCODED,PROPHYLAXIS OR NON-THERAPEUTIC USE,UNCODED,2.000,TABLET,TID,ORAL,6,AMBUL ECG REMOVAL,30,8/22/2012 07:00,2011-05-19,,30,34
CDISCPILOT01,CM,01-701-1287,12,2,PREMARIN,ESTROGENS CONJUGATED,PROPHYLAXIS OR NON-THERAPEUTIC USE,GENITO URINARY SYSTEM AND SEX HORMONES,0.625,mg,QD,ORAL,6,AMBUL ECG REMOVAL,30,2/21/2014 10:00,2013-06-28,,30,34
CDISCPILOT01,CM,01-701-1302,28,3,METAMUCIL,UNCODED,,UNCODED,2.000,Tbsp,QD,ORAL,6,AMBUL ECG REMOVAL,30,9/25/2013 07:00,2012-03-01,,30,34
CDISCPILOT01,CM,01-701-1392,24,4,ZESTRIL,UNCODED,,UNCODED,5.000,mg,QD,ORAL,6,AMBUL ECG REMOVAL,30,11/25/2012 10:00,2011-03-17,,30,34
CDISCPILOT01,CM,01-703-1042,19,1,NORVASC,AMLODIPINE,,CARDIOVASCULAR SYSTEM,5.000,mg,QD,ORAL,6,AMBUL ECG REMOVAL,30,3/30/2013 10:00,2013-01-27,,30,34
CDISCPILOT01,CM,01-704-1120,1,2,"HYDROCORTISONE, TOPICAL",UNCODED,,UNCODED,0.500,%,PRN,TOPICAL,6,AMBUL ECG REMOVAL,30,12/30/2013 10:00,2013-12-31,2014-01-26,30,56
CDISCPILOT01,CM,01-704-1120,2,2,"HYDROCORTISONE, TOPICAL",UNCODED,,UNCODED,0.500,%,PRN,TOPICAL,7,WEEK 6,42,1/12/2014 10:00,2013-12-31,2014-01-26,30,56
CDISCPILOT01,CM,01-704-1120,3,2,"HYDROCORTISONE, TOPICAL",UNCODED,,UNCODED,0.500,%,PRN,TOPICAL,8,WEEK 8,56,1/26/2014 10:00,2013-12-31,2014-01-26,30,56
CDISCPILOT01,CM,01-708-1087,11,3,LORAZEPAM,UNCODED,PRIMARY STUDY CONDITION,UNCODED,0.500,mg,PRN,ORAL,5,WEEK 4,28,11/19/2012 10:00,2012-11-20,2012-11-24,30,34
CDISCPILOT01,CM,01-708-1087,14,3,LORAZEPAM,UNCODED,PRIMARY STUDY CONDITION,UNCODED,0.500,mg,PRN,ORAL,6,AMBUL ECG REMOVAL,30,11/24/2012 10:00,2012-11-20,2012-11-24,30,34
CDISCPILOT01,CM,01-708-1216,12,4,BENADRYL,UNCODED,,UNCODED,25.000,mg,BID,ORAL,5,WEEK 4,28,11/21/2012 10:00,2012-11-22,2012-11-24,30,32
CDISCPILOT01,CM,01-708-1216,15,4,BENADRYL,UNCODED,,UNCODED,25.000,mg,BID,ORAL,6,AMBUL ECG REMOVAL,30,11/23/2012 10:00,2012-11-22,2012-11-24,30,32
CDISCPILOT01,CM,01-708-1216,18,4,BENADRYL,UNCODED,,UNCODED,25.000,mg,BID,ORAL,7,WEEK 6,42,12/5/2012 10:00,2012-11-22,2012-11-24,30,32
CDISCPILOT01,CM,01-713-1043,15,4,"HYDROCORTISONE, TOPICAL",UNCODED,,UNCODED,1.000,%,PRN,TOPICAL,7,WEEK 6,42,11/1/2013 10:00,2013-10-14,2014-03-03,30,170
CDISCPILOT01,CM,01-713-1043,18,4,"HYDROCORTISONE, TOPICAL",UNCODED,,UNCODED,1.000,%,PRN,TOPICAL,8,WEEK 8,56,11/10/2013 10:00,2013-10-14,2014-03-03,30,170
CDISCPILOT01,CM,01-713-1043,22,4,"HYDROCORTISONE, TOPICAL",UNCODED,,UNCODED,1.000,%,PRN,TOPICAL,9,WEEK 12,84,12/5/2013 10:00,2013-10-14,2014-03-03,30,170
CDISCPILOT01,CM,01-713-1043,26,4,"HYDROCORTISONE, TOPICAL",UNCODED,,UNCODED,1.000,%,PRN,TOPICAL,10,WEEK 16,112,1/2/2014 10:00,2013-10-14,2014-03-03,30,170
CDISCPILOT01,CM,01-713-1043,30,4,"HYDROCORTISONE, TOPICAL",UNCODED,,UNCODED,1.000,%,PRN,TOPICAL,11,WEEK 20,140,1/25/2014 10:00,2013-10-14,2014-03-03,30,170
CDISCPILOT01,CM,01-713-1043,34,4,"HYDROCORTISONE, TOPICAL",UNCODED,,UNCODED,1.000,%,PRN,TOPICAL,12,WEEK 24,168,2/27/2014 10:00,2013-10-14,2014-03-03,30,170
CDISCPILOT01,CM,01-713-1043,38,4,"HYDROCORTISONE, TOPICAL",UNCODED,,UNCODED,1.000,%,PRN,TOPICAL,13,WEEK 26,182,3/24/2014 10:00,2013-10-14,2014-03-03,30,170
CDISCPILOT01,CM,01-717-1109,12,3,ATIVAN,UNCODED,,UNCODED,0.500,mg,PRN,ORAL,6,AMBUL ECG REMOVAL,30,2/24/2014 10:00,2014-02-25,,30,35
CDISCPILOT01,CM,01-717-1109,14,3,ATIVAN,UNCODED,,UNCODED,0.500,mg,PRN,ORAL,7,WEEK 6,42,3/10/2014 10:00,2014-02-25,,30,35
CDISCPILOT01,CM,01-717-1109,17,3,ATIVAN,UNCODED,,UNCODED,0.500,mg,PRN,ORAL,8,WEEK 8,56,3/24/2014 10:00,2014-02-25,,30,35
CDISCPILOT01,CM,01-717-1109,20,3,ATIVAN,UNCODED,,UNCODED,0.500,mg,PRN,ORAL,9,WEEK 12,84,4/17/2014 07:00,2014-02-25,,30,35
CDISCPILOT01,CM,01-717-1109,23,3,ATIVAN,UNCODED,,UNCODED,0.500,mg,PRN,ORAL,10,WEEK 16,112,5/18/2014 07:00,2014-02-25,,30,35
CDISCPILOT01,CM,01-717-1109,27,3,ATIVAN,UNCODED,,UNCODED,0.500,mg,PRN,ORAL,11,WEEK 20,140,6/15/2014 07:00,2014-02-25,,30,35
CDISCPILOT01,CM,01-717-1109,30,3,ATIVAN,UNCODED,,UNCODED,0.500,mg,PRN,ORAL,12,WEEK 24,168,7/17/2014 07:00,2014-02-25,,30,35
CDISCPILOT01,CM,01-717-1109,34,3,ATIVAN,UNCODED,,UNCODED,0.500,mg,PRN,ORAL,13,WEEK 26,182,7/27/2014 07:00,2014-02-25,,30,35
CDISCPILOT01,CM,01-717-1174,4,2,CLARITIN,UNCODED,,UNCODED,10.000,mg,PRN,ORAL,6,AMBUL ECG REMOVAL,30,2/19/2013 10:00,2013-02-20,2013-04-12,30,81
CDISCPILOT01,CM,01-717-1174,7,2,CLARITIN,UNCODED,,UNCODED,10.000,mg,PRN,ORAL,7,WEEK 6,42,3/3/2013 10:00,2013-02-20,2013-04-12,30,81
CDISCPILOT01,CM,01-717-1174,10,2,CLARITIN,UNCODED,,UNCODED,10.000,mg,PRN,ORAL,8,WEEK 8,56,3/19/2013 10:00,2013-02-20,2013-04-12,30,81
CDISCPILOT01,CM,01-717-1174,13,2,CLARITIN,UNCODED,,UNCODED,10.000,mg,PRN,ORAL,9,WEEK 12,84,4/14/2013 07:00,2013-02-20,2013-04-12,30,81
CDISCPILOT01,CM,01-717-1174,5,3,KENALOG,UNCODED,,UNCODED,1.000,VIAL,PRN,TOPICAL,6,AMBUL ECG REMOVAL,30,2/19/2013 10:00,2013-02-20,2013-05-04,30,103
CDISCPILOT01,CM,01-717-1174,8,3,KENALOG,UNCODED,,UNCODED,1.000,VIAL,PRN,TOPICAL,7,WEEK 6,42,3/3/2013 10:00,2013-02-20,2013-05-04,30,103
CDISCPILOT01,CM,01-717-1174,11,3,KENALOG,UNCODED,,UNCODED,1.000,VIAL,PRN,TOPICAL,8,WEEK 8,56,3/19/2013 10:00,2013-02-20,2013-05-04,30,103
CDISCPILOT01,CM,01-717-1174,14,3,KENALOG,UNCODED,,UNCODED,1.000,VIAL,PRN,TOPICAL,9,WEEK 12,84,4/14/2013 07:00,2013-02-20,2013-05-04,30,103
CDISCPILOT01,CM,01-717-1174,16,3,KENALOG,UNCODED,,UNCODED,1.000,VIAL,PRN,TOPICAL,10,WEEK 16,112,5/17/2013 07:00,2013-02-20,2013-05-04,30,103
CDISCPILOT01,CM,01-704-1241,1,1,"HYDROCORTISONE, TOPICAL",UNCODED,,UNCODED,1.000,%,PRN,TOPICAL,7,WEEK 6,42,10/8/2013 07:00,2013-09-24,2013-10-30,31,67
CDISCPILOT01,CM,01-704-1241,2,1,"HYDROCORTISONE, TOPICAL",UNCODED,,UNCODED,1.000,%,PRN,TOPICAL,8,WEEK 8,56,10/31/2013 10:00,2013-09-24,2013-10-30,31,67
CDISCPILOT01,CM,01-704-1325,1,1,"HYDROCORTISONE, TOPICAL",UNCODED,,UNCODED,1.000,%,PRN,TOPICAL,7,WEEK 6,42,6/3/2014 07:00,2014-05-23,2014-07-08,31,77
CDISCPILOT01,CM,01-704-1325,2,1,"HYDROCORTISONE, TOPICAL",UNCODED,,UNCODED,1.000,%,PRN,TOPICAL,8,WEEK 8,56,6/17/2014 07:00,2014-05-23,2014-07-08,31,77
CDISCPILOT01,CM,01-704-1325,3,1,"HYDROCORTISONE, TOPICAL",UNCODED,,UNCODED,1.000,%,PRN,TOPICAL,9,WEEK 12,84,7/15/2014 07:00,2014-05-23,2014-07-08,31,77
CDISCPILOT01,CM,01-718-1170,14,4,ATIVAN,UNCODED,,UNCODED,0.500,mg,PRN,ORAL,5,WEEK 4,28,11/3/2013 10:00,2013-10-16,,31,35
CDISCPILOT01,CM,01-718-1170,18,4,ATIVAN,UNCODED,,UNCODED,0.500,mg,PRN,ORAL,201,RETRIEVAL,168,3/15/2014 10:00,2013-10-16,,31,35
CDISCPILOT01,CM,01-718-1427,7,3,MYLANTA,UNCODED,,UNCODED,1.000,Tbsp,ONCE,ORAL,5,WEEK 4,28,1/16/2013 10:00,2013-01-16,2013-01-16,31,31
CDISCPILOT01,CM,01-704-1017,9,3,"HYDROCORTISONE, TOPICAL",UNCODED,,UNCODED,1.000,VIAL,QD,TOPICAL,5,WEEK 4,28,11/8/2013 10:00,2013-11-06,2013-11-22,32,48
CDISCPILOT01,CM,01-704-1017,11,3,"HYDROCORTISONE, TOPICAL",UNCODED,,UNCODED,1.000,VIAL,QD,TOPICAL,6,AMBUL ECG REMOVAL,30,11/10/2013 10:00,2013-11-06,2013-11-22,32,48
CDISCPILOT01,CM,01-704-1017,13,3,"HYDROCORTISONE, TOPICAL",UNCODED,,UNCODED,1.000,VIAL,QD,TOPICAL,7,WEEK 6,42,11/23/2013 10:00,2013-11-06,2013-11-22,32,48
CDISCPILOT01,CM,01-704-1114,22,4,"HYDROCORTISONE, TOPICAL",UNCODED,,UNCODED,1.000,%,PRN,TOPICAL,7,WEEK 6,42,3/13/2013 10:00,2013-02-23,,32,35
CDISCPILOT01,CM,01-704-1114,26,4,"HYDROCORTISONE, TOPICAL",UNCODED,,UNCODED,1.000,%,PRN,TOPICAL,8,WEEK 8,56,3/26/2013 10:00,2013-02-23,,32,35
CDISCPILOT01,CM,01-704-1114,31,4,"HYDROCORTISONE, TOPICAL",UNCODED,,UNCODED,1.000,%,PRN,TOPICAL,9,WEEK 12,84,4/16/2013 07:00,2013-02-23,,32,35
CDISCPILOT01,CM,01-704-1114,36,4,"HYDROCORTISONE, TOPICAL",UNCODED,,UNCODED,1.000,%,PRN,TOPICAL,10,WEEK 16,112,5/13/2013 07:00,2013-02-23,,32,35
CDISCPILOT01,CM,01-704-1114,41,4,"HYDROCORTISONE, TOPICAL",UNCODED,,UNCODED,1.000,%,PRN,TOPICAL,11,WEEK 20,140,6/15/2013 07:00,2013-02-23,,32,35
CDISCPILOT01,CM,01-704-1114,46,4,"HYDROCORTISONE, TOPICAL",UNCODED,,UNCODED,1.000,%,PRN,TOPICAL,12,WEEK 24,168,7/7/2013 07:00,2013-02-23,,32,35
CDISCPILOT01,CM,01-713-1141,13,3,BENADRYL,UNCODED,,UNCODED,12.500,mg,PRN,INTRAVENOUS,7,WEEK 6,42,8/5/2013 07:00,2013-07-01,2013-07-05,32,36
CDISCPILOT01,CM,01-713-1141,14,7,LORAZEPAM,UNCODED,PRIMARY STUDY CONDITION,UNCODED,0.500,mg,PRN,ORAL,7,WEEK 6,42,8/5/2013 07:00,2013-07-01,2013-07-05,32,36
CDISCPILOT01,CM,01-713-1141,15,11,PHENERGAN,UNCODED,,UNCODED,,,,,7,WEEK 6,42,8/5/2013 07:00,2013-07-01,2013-07-01,32,32
CDISCPILOT01,CM,01-713-1141,16,14,TORADOL,UNCODED,,UNCODED,,,,,7,WEEK 6,42,8/5/2013 07:00,2013-07-01,2013-07-01,32,32
CDISCPILOT01,CM,01-704-1065,19,4,BENADRYL,UNCODED,,UNCODED,1.000,VIAL,PRN,TOPICAL,5,WEEK 4,28,11/24/2013 10:00,2013-11-25,,33,35
CDISCPILOT01,CM,01-704-1065,24,4,BENADRYL,UNCODED,,UNCODED,1.000,VIAL,PRN,TOPICAL,6,AMBUL ECG REMOVAL,30,11/26/2013 10:00,2013-11-25,,33,45
CDISCPILOT01,CM,01-704-1065,29,4,BENADRYL,UNCODED,,UNCODED,1.000,VIAL,PRN,TOPICAL,7,WEEK 6,42,12/5/2013 10:00,2013-11-25,,33,45
CDISCPILOT01,CM,01-704-1065,34,4,BENADRYL,UNCODED,,UNCODED,1.000,VIAL,PRN,TOPICAL,8,WEEK 8,56,12/19/2013 10:00,2013-11-25,,33,45
CDISCPILOT01,CM,01-704-1065,39,4,BENADRYL,UNCODED,,UNCODED,1.000,VIAL,PRN,TOPICAL,9,WEEK 12,84,12/23/2013 10:00,2013-11-25,,33,45
CDISCPILOT01,CM,01-704-1065,44,4,BENADRYL,UNCODED,,UNCODED,1.000,VIAL,PRN,TOPICAL,101,AE FOLLOW-UP,,2/16/2014 10:00,2013-11-25,,33,45
CDISCPILOT01,CM,01-704-1164,15,5,VITAMIN C,UNCODED,PROPHYLAXIS OR NON-THERAPEUTIC USE,UNCODED,500.000,mg,QD,ORAL,5,WEEK 4,28,10/20/2012 07:00,2012-10-21,,33,45
CDISCPILOT01,CM,01-704-1164,18,5,VITAMIN C,UNCODED,PROPHYLAXIS OR NON-THERAPEUTIC USE,UNCODED,500.000,mg,QD,ORAL,6,AMBUL ECG REMOVAL,30,10/22/2012 07:00,2012-10-21,,33,45
CDISCPILOT01,CM,01-704-1164,21,5,VITAMIN C,UNCODED,PROPHYLAXIS OR NON-THERAPEUTIC USE,UNCODED,500.000,mg,QD,ORAL,7,WEEK 6,42,11/1/2012 10:00,2012-10-21,,33,45
CDISCPILOT01,CM,01-704-1164,24,5,VITAMIN C,UNCODED,PROPHYLAXIS OR NON-THERAPEUTIC USE,UNCODED,500.000,mg,QD,ORAL,8,WEEK 8,56,11/14/2012 10:00,2012-10-21,,33,45
CDISCPILOT01,CM,01-704-1164,27,5,VITAMIN C,UNCODED,PROPHYLAXIS OR NON-THERAPEUTIC USE,UNCODED,500.000,mg,QD,ORAL,9,WEEK 12,84,12/15/2012 10:00,2012-10-21,,33,45
CDISCPILOT01,CM,01-704-1164,30,5,VITAMIN C,UNCODED,PROPHYLAXIS OR NON-THERAPEUTIC USE,UNCODED,500.000,mg,QD,ORAL,10,WEEK 16,112,1/13/2013 10:00,2012-10-21,,33,45
CDISCPILOT01,CM,01-704-1164,33,5,VITAMIN C,UNCODED,PROPHYLAXIS OR NON-THERAPEUTIC USE,UNCODED,500.000,mg,QD,ORAL,11,WEEK 20,140,2/13/2013 10:00,2012-10-21,,33,45
CDISCPILOT01,CM,01-704-1164,36,5,VITAMIN C,UNCODED,PROPHYLAXIS OR NON-THERAPEUTIC USE,UNCODED,500.000,mg,QD,ORAL,12,WEEK 24,168,3/17/2013 10:00,2012-10-21,,33,45
CDISCPILOT01,CM,01-704-1164,39,5,VITAMIN C,UNCODED,PROPHYLAXIS OR NON-THERAPEUTIC USE,UNCODED,500.000,mg,QD,ORAL,13,WEEK 26,182,4/3/2013 07:00,2012-10-21,,33,45
CDISCPILOT01,CM,01-710-1045,7,3,BENADRYL,UNCODED,,UNCODED,1.000,cm,PRN,TOPICAL,6,AMBUL ECG REMOVAL,30,7/4/2013 07:00,2013-07-05,2013-08-17,33,76
CDISCPILOT01,CM,01-710-1045,10,3,BENADRYL,UNCODED,,UNCODED,1.000,cm,PRN,TOPICAL,7,WEEK 6,42,7/14/2013 07:00,2013-07-05,2013-08-17,33,76
CDISCPILOT01,CM,01-710-1045,13,3,BENADRYL,UNCODED,,UNCODED,1.000,cm,PRN,TOPICAL,8,WEEK 8,56,7/28/2013 07:00,2013-07-05,2013-08-17,33,76
CDISCPILOT01,CM,01-710-1045,15,3,BENADRYL,UNCODED,,UNCODED,1.000,cm,PRN,TOPICAL,9,WEEK 12,84,8/16/2013 07:00,2013-07-05,2013-08-17,33,76
CDISCPILOT01,CM,01-710-1045,18,3,BENADRYL,UNCODED,,UNCODED,1.000,cm,PRN,TOPICAL,101,AE FOLLOW-UP,,9/7/2013 07:00,2013-07-05,2013-08-17,33,76
CDISCPILOT01,CM,01-710-1045,8,2,ROBITUSSIN,UNCODED,,UNCODED,1.000,Tbsp,PRN,ORAL,6,AMBUL ECG REMOVAL,30,7/4/2013 07:00,2013-07-05,2013-07-09,33,37
CDISCPILOT01,CM,01-710-1045,11,2,ROBITUSSIN,UNCODED,,UNCODED,1.000,Tbsp,PRN,ORAL,7,WEEK 6,42,7/14/2013 07:00,2013-07-05,2013-07-09,33,37
CDISCPILOT01,CM,01-701-1275,8,2,VITAMIN C,UNCODED,,UNCODED,500.000,mg,QD,ORAL,7,WEEK 6,42,3/22/2014 10:00,2014-03-12,,34,45
CDISCPILOT01,CM,01-701-1275,10,2,VITAMIN C,UNCODED,,UNCODED,500.000,mg,QD,ORAL,8,WEEK 8,56,4/4/2014 07:00,2014-03-12,,34,45
CDISCPILOT01,CM,01-701-1275,12,2,VITAMIN C,UNCODED,,UNCODED,500.000,mg,QD,ORAL,9,WEEK 12,84,5/2/2014 07:00,2014-03-12,,34,45
CDISCPILOT01,CM,01-701-1275,14,2,VITAMIN C,UNCODED,,UNCODED,500.000,mg,QD,ORAL,10,WEEK 16,112,6/13/2014 07:00,2014-03-12,,34,45
CDISCPILOT01,CM,01-704-1266,34,7,POLYSPORIN,UNCODED,,UNCODED,1.000,VIAL,PRN,TOPICAL,7,WEEK 6,42,11/21/2013 10:00,2013-11-15,,34,45
CDISCPILOT01,CM,01-704-1266,40,7,POLYSPORIN,UNCODED,,UNCODED,1.000,VIAL,PRN,TOPICAL,8,WEEK 8,56,12/5/2013 10:00,2013-11-15,,34,45
CDISCPILOT01,CM,01-704-1266,46,7,POLYSPORIN,UNCODED,,UNCODED,1.000,VIAL,PRN,TOPICAL,101,AE FOLLOW-UP,,1/2/2014 10:00,2013-11-15,,34,45
CDISCPILOT01,CM,01-708-1342,55,12,VITAMIN E,UNCODED,PRIMARY STUDY CONDITION,UNCODED,400.000,IU,QD,ORAL,7,WEEK 6,42,2/6/2013 10:00,2013-01-31,2013-04-17,34,110
CDISCPILOT01,CM,01-708-1342,64,12,VITAMIN E,UNCODED,PRIMARY STUDY CONDITION,UNCODED,400.000,IU,QD,ORAL,8,WEEK 8,56,2/22/2013 10:00,2013-01-31,2013-04-17,34,110
CDISCPILOT01,CM,01-708-1342,73,12,VITAMIN E,UNCODED,PRIMARY STUDY CONDITION,UNCODED,400.000,IU,QD,ORAL,9,WEEK 12,84,3/21/2013 10:00,2013-01-31,2013-04-17,34,110
CDISCPILOT01,CM,01-708-1342,82,12,VITAMIN E,UNCODED,PRIMARY STUDY CONDITION,UNCODED,400.000,IU,QD,ORAL,10,WEEK 16,112,4/19/2013 07:00,2013-01-31,2013-04-17,34,110
CDISCPILOT01,CM,01-709-1099,20,4,"HYDROCORTISONE, TOPICAL",UNCODED,,UNCODED,1.000,IN,PRN,TOPICAL,5,WEEK 4,28,11/26/2013 10:00,2013-11-27,,34,45
CDISCPILOT01,CM,01-709-1099,24,4,"HYDROCORTISONE, TOPICAL",UNCODED,,UNCODED,1.000,IN,PRN,TOPICAL,6,AMBUL ECG REMOVAL,30,11/28/2013 10:00,2013-11-27,,34,45
CDISCPILOT01,CM,01-709-1099,28,4,"HYDROCORTISONE, TOPICAL",UNCODED,,UNCODED,1.000,IN,PRN,TOPICAL,7,WEEK 6,42,12/10/2013 10:00,2013-11-27,,34,45
CDISCPILOT01,CM,01-709-1099,32,4,"HYDROCORTISONE, TOPICAL",UNCODED,,UNCODED,1.000,IN,PRN,TOPICAL,8,WEEK 8,56,12/25/2013 10:00,2013-11-27,,34,45
CDISCPILOT01,CM,01-709-1099,36,4,"HYDROCORTISONE, TOPICAL",UNCODED,,UNCODED,1.000,IN,PRN,TOPICAL,9,WEEK 12,84,1/19/2014 10:00,2013-11-27,,34,45
CDISCPILOT01,CM,01-709-1099,40,4,"HYDROCORTISONE, TOPICAL",UNCODED,,UNCODED,1.000,IN,PRN,TOPICAL,10,WEEK 16,112,2/13/2014 10:00,2013-11-27,,34,45
CDISCPILOT01,CM,01-709-1099,44,4,"HYDROCORTISONE, TOPICAL",UNCODED,,UNCODED,1.000,IN,PRN,TOPICAL,11,WEEK 20,140,3/14/2014 10:00,2013-11-27,,34,45
CDISCPILOT01,CM,01-709-1099,48,4,"HYDROCORTISONE, TOPICAL",UNCODED,,UNCODED,1.000,IN,PRN,TOPICAL,12,WEEK 24,168,4/10/2014 07:00,2013-11-27,,34,45
CDISCPILOT01,CM,01-709-1099,53,4,"HYDROCORTISONE, TOPICAL",UNCODED,,UNCODED,1.000,IN,PRN,TOPICAL,13,WEEK 26,182,4/24/2014 07:00,2013-11-27,,34,45
CDISCPILOT01,CM,01-713-1141,17,10,OLANZAPINE,UNCODED,,UNCODED,10.000,mg,QD,ORAL,7,WEEK 6,42,8/5/2013 07:00,2013-07-03,,34,45
CDISCPILOT01,CM,01-703-1076,22,6,MEVACOR,UNCODED,,UNCODED,20.000,mg,QD,ORAL,7,WEEK 6,42,12/3/2013 10:00,2013-11-28,2013-12-12,35,49
CDISCPILOT01,CM,01-703-1076,25,6,MEVACOR,UNCODED,,UNCODED,20.000,mg,QD,ORAL,8,WEEK 8,56,12/16/2013 10:00,2013-11-28,2013-12-12,35,49
CDISCPILOT01,CM,01-708-1084,21,7,LORAZEPAM,UNCODED,PRIMARY STUDY CONDITION,UNCODED,2.000,mg,PRN,ORAL,7,WEEK 6,42,6/22/2013 07:00,2013-06-12,2013-06-22,35,45
CDISCPILOT01,CM,01-708-1087,15,4,LORAZEPAM,UNCODED,PRIMARY STUDY CONDITION,UNCODED,0.500,mg,PRN,ORAL,6,AMBUL ECG REMOVAL,30,11/24/2012 10:00,2012-11-25,2012-12-07,35,47
CDISCPILOT01,CM,01-708-1087,18,4,LORAZEPAM,UNCODED,PRIMARY STUDY CONDITION,UNCODED,0.500,mg,PRN,ORAL,7,WEEK 6,42,12/7/2012 10:00,2012-11-25,2012-12-07,35,47
CDISCPILOT01,CM,01-710-1053,33,6,CORTISONE,UNCODED,,UNCODED,1.000,cm,PRN,TOPICAL,7,WEEK 6,42,2/5/2013 10:00,2013-01-29,2013-01-31,35,37
CDISCPILOT01,CM,01-701-1180,10,4,ALOES,UNCODED,PROPHYLAXIS OR NON-THERAPEUTIC USE,UNCODED,1.000,VIAL,QD,TOPICAL,7,WEEK 6,42,3/23/2013 10:00,2013-03-19,2013-03-19,36,36
CDISCPILOT01,CM,01-701-1180,11,5,WESTCORT,UNCODED,PROPHYLAXIS OR NON-THERAPEUTIC USE,UNCODED,1.000,VIAL,BID,TOPICAL,7,WEEK 6,42,3/23/2013 10:00,2013-03-19,2013-03-21,36,38
CDISCPILOT01,CM,01-709-1020,15,5,PEPTO-BISMOL,UNCODED,,UNCODED,1.000,Tbsp,PRN,ORAL,7,WEEK 6,42,1/11/2013 10:00,2013-01-05,2013-01-11,36,42
CDISCPILOT01,CM,01-713-1141,18,2,ARICEPT,DONEPEZIL HYDROCHLORIDE,PRIMARY STUDY CONDITION,NERVOUS SYSTEM,5.000,mg,QD,ORAL,7,WEEK 6,42,8/5/2013 07:00,2013-07-05,,36,45
CDISCPILOT01,CM,01-713-1141,19,4,DILTIAZEM HYDROCHLORIDE,UNCODED,,UNCODED,180.000,mg,QD,ORAL,7,WEEK 6,42,8/5/2013 07:00,2013-07-05,,36,45
CDISCPILOT01,CM,01-713-1141,20,5,DONEPEZIL HYDROCHLORIDE,UNCODED,PRIMARY STUDY CONDITION,UNCODED,5.000,mg,QD,ORAL,7,WEEK 6,42,8/5/2013 07:00,2013-07-05,,36,45
CDISCPILOT01,CM,01-713-1141,21,8,LORAZEPAM,UNCODED,PRIMARY STUDY CONDITION,UNCODED,0.500,mg,QD,ORAL,7,WEEK 6,42,8/5/2013 07:00,2013-07-05,,36,45
CDISCPILOT01,CM,01-713-1141,22,9,MAGNESIUM OXIDE,UNCODED,PROPHYLAXIS OR NON-THERAPEUTIC USE,UNCODED,400.000,mg,QD,ORAL,7,WEEK 6,42,8/5/2013 07:00,2013-07-05,,36,45
CDISCPILOT01,CM,01-713-1141,23,13,POTASSIUM CHLORIDE,UNCODED,PROPHYLAXIS OR NON-THERAPEUTIC USE,UNCODED,10.000,mEq,QD,ORAL,7,WEEK 6,42,8/5/2013 07:00,2013-07-05,,36,45
CDISCPILOT01,CM,01-713-1141,24,15,ZANTAC,UNCODED,PROPHYLAXIS OR NON-THERAPEUTIC USE,UNCODED,150.000,mg,BID,ORAL,7,WEEK 6,42,8/5/2013 07:00,2013-07-05,,36,45
CDISCPILOT01,CM,01-718-1254,10,4,LANACANE,UNCODED,,UNCODED,,,PRN,TOPICAL,7,WEEK 6,42,8/19/2013 07:00,2013-08-14,2013-08-20,36,42
CDISCPILOT01,CM,01-718-1254,12,4,LANACANE,UNCODED,,UNCODED,,,PRN,TOPICAL,8,WEEK 8,56,9/4/2013 07:00,2013-08-14,2013-08-20,36,42
CDISCPILOT01,CM,01-718-1427,10,5,MYLANTA,UNCODED,,UNCODED,1.000,Tbsp,ONCE,ORAL,7,WEEK 6,42,1/27/2013 10:00,2013-01-21,2013-01-24,36,39
CDISCPILOT01,CM,01-708-1272,8,2,LORAZEPAM,UNCODED,PRIMARY STUDY CONDITION,UNCODED,0.500,mg,PRN,ORAL,7,WEEK 6,42,3/20/2013 10:00,2013-03-14,,37,45
CDISCPILOT01,CM,01-708-1272,10,2,LORAZEPAM,UNCODED,PRIMARY STUDY CONDITION,UNCODED,0.500,mg,PRN,ORAL,8,WEEK 8,56,4/3/2013 07:00,2013-03-14,,37,45
CDISCPILOT01,CM,01-709-1020,16,4,IMODIUM,LOPERAMIDE HYDROCHLORIDE,,ALIMENTARY TRACT AND METABOLISM,1.000,TABLET,PRN,ORAL,7,WEEK 6,42,1/11/2013 10:00,2013-01-06,2013-01-11,37,42
CDISCPILOT01,CM,01-709-1238,13,4,"HYDROCORTISONE, TOPICAL",UNCODED,,UNCODED,1.000,IN,QD,TOPICAL,6,AMBUL ECG REMOVAL,30,6/24/2013 07:00,2013-06-20,,37,45
